accelerometer	 104.0Hz
cycle sample index,accel X,accel Y,accel Z
0,0.107,0.315,1.007
1,0.067,0.312,1.021
2,0.034,0.470,1.012
3,-0.170,0.219,0.999
4,0.196,-0.218,0.996
5,0.966,-0.267,1.008
6,0.793,-0.450,1.026
7,-0.561,-0.445,0.995
8,-0.423,0.340,1.005
9,0.026,0.240,1.004
10,0.155,0.106,0.999
11,0.084,0.237,0.996
12,0.004,0.286,1.012
13,0.381,0.128,1.083
14,0.434,-0.327,0.989
15,-0.556,-0.447,0.978
16,-0.195,-0.191,1.005
17,0.209,-0.158,1.010
18,0.131,-0.996,1.015
19,0.237,-0.773,1.011
20,-0.061,-0.273,0.998
21,-1.025,0.074,0.966
22,-1.484,0.353,0.981
23,-0.698,0.523,1.006
24,0.565,0.300,1.024
25,0.013,0.055,1.005
26,-0.071,-0.174,0.993
27,0.043,-0.412,0.991
28,0.017,-0.407,1.004
29,-0.217,-0.443,1.038
30,-0.806,0.191,1.021
31,-0.390,0.821,0.985
32,0.279,0.722,0.993
33,0.022,0.195,1.011
34,0.087,0.378,1.023
35,0.006,0.426,1.013
36,-0.154,0.192,1.000
37,0.271,-0.250,1.000
38,0.959,-0.258,1.010
39,0.671,-0.426,1.025
40,-0.660,-0.357,0.996
41,-0.300,0.228,1.005
42,0.072,0.153,1.004
43,0.122,0.113,0.999
44,-0.006,0.347,0.995
45,-0.074,0.529,1.014
46,0.450,0.244,1.081
47,0.514,-0.435,0.991
48,-0.394,-0.627,0.985
49,-0.197,-0.267,1.005
50,0.179,-0.392,1.010
51,0.067,-1.010,1.012
52,0.204,-0.634,1.010
53,-0.252,-0.136,0.996
54,-1.219,0.128,0.966
55,-1.453,0.366,0.981
56,-0.572,0.702,1.009
57,0.430,0.483,1.015
58,0.133,0.087,1.008
59,0.030,-0.138,0.999
60,0.142,-0.420,0.996
61,0.130,-0.599,1.011
62,-0.200,-0.675,1.047
63,-0.716,0.394,1.010
64,-0.368,0.754,0.982
65,0.156,0.712,0.998
66,0.142,0.414,1.016
67,0.110,0.483,1.017
68,-0.117,0.307,1.012
69,-0.124,0.079,0.996
70,0.575,-0.310,1.006
71,1.110,-0.362,1.020
72,0.307,-0.631,1.017
73,-0.714,-0.118,0.997
74,-0.143,0.330,1.006
75,0.092,0.262,1.003
76,0.098,0.160,0.996
77,-0.051,0.417,1.000
78,0.065,0.506,1.032
79,0.687,-0.106,1.064
80,0.229,-0.526,0.981
81,-0.505,-0.607,0.993
82,-0.092,-0.332,1.006
83,0.067,-0.816,1.013
84,0.176,-0.876,1.013
85,0.142,-0.366,1.008
86,-0.720,0.149,0.986
87,-1.575,0.405,0.961
88,-1.279,0.685,0.988
89,0.129,0.717,1.015
90,0.538,0.079,1.021
91,0.084,-0.214,1.003
92,0.151,-0.479,0.997
93,0.118,-0.561,0.996
94,-0.069,-0.597,1.012
95,-0.823,-0.230,1.054
96,-0.776,0.716,0.986
97,0.054,1.004,0.989
98,0.256,0.416,1.007
99,0.015,0.253,1.016
100,-0.011,0.395,1.018
101,-0.128,0.283,1.006
102,0.066,-0.062,0.997
103,0.814,-0.180,1.008
104,0.945,-0.331,1.026
105,-0.160,-0.549,1.005
106,-0.593,0.038,1.002
107,0.068,0.029,1.006
108,0.128,0.077,1.003
109,-0.025,0.290,0.993
110,-0.219,0.590,1.007
111,0.059,0.795,1.059
112,0.593,-0.365,1.024
113,0.135,-0.632,0.988
114,-0.338,-0.521,0.999
115,0.037,-0.436,1.010
116,0.108,-0.839,1.016
117,0.144,-0.810,1.011
118,-0.035,-0.258,1.003
119,-1.014,0.193,0.978
120,-1.578,0.448,0.969
121,-0.919,0.729,0.999
122,0.390,0.637,1.016
123,0.265,0.157,1.014
124,-0.027,-0.086,0.999
125,0.155,-0.414,0.998
126,0.198,-0.432,1.005
127,0.100,-0.832,1.029
128,-0.642,-0.068,1.045
129,-0.579,0.674,0.977
130,0.030,0.854,0.993
131,0.142,0.433,1.011
132,0.163,0.511,1.020
133,-0.049,0.355,1.015
134,-0.181,0.208,1.001
135,0.288,-0.241,1.002
136,1.033,-0.210,1.014
137,0.707,-0.549,1.026
138,-0.611,-0.428,0.993
139,-0.187,0.125,1.010
140,0.144,-0.044,1.005
141,0.085,0.049,1.000
142,-0.152,0.283,0.995
143,-0.422,0.770,1.015
144,0.228,0.538,1.065
145,0.392,-0.492,0.996
146,-0.119,-0.625,0.991
147,-0.135,-0.462,1.005
148,0.016,-0.664,1.012
149,0.099,-0.880,1.011
150,0.152,-0.516,1.011
151,-0.447,0.055,0.994
152,-1.381,0.260,0.964
153,-1.448,0.624,0.982
154,-0.226,0.891,1.013
155,0.553,0.356,1.017
156,0.035,0.047,1.004
157,0.046,-0.210,1.000
158,0.181,-0.453,0.997
159,0.225,-0.552,1.018
160,-0.225,-0.862,1.054
161,-0.574,0.477,0.999
162,-0.386,0.787,0.983
163,0.133,0.729,1.001
164,0.177,0.469,1.017
165,0.107,0.467,1.017
166,-0.174,0.253,1.012
167,-0.117,0.003,0.996
168,0.678,-0.257,1.007
169,1.129,-0.389,1.026
170,0.120,-0.663,1.011
171,-0.676,-0.016,1.000
172,0.011,0.054,1.007
173,0.110,0.035,1.005
174,-0.010,0.239,0.995
175,-0.266,0.359,1.005
176,-0.223,0.958,1.039
177,0.414,-0.111,1.035
178,0.364,-0.489,0.996
179,-0.251,-0.630,0.996
180,-0.090,-0.449,1.007
181,0.084,-0.763,1.014
182,0.143,-0.811,1.011
183,0.023,-0.296,1.005
184,-0.842,0.225,0.981
185,-1.498,0.372,0.968
186,-1.043,0.758,0.997
187,0.312,0.715,1.015
188,0.322,0.191,1.017
189,-0.077,-0.002,0.998
190,0.101,-0.344,0.999
191,0.184,-0.355,1.005
192,0.275,-0.739,1.028
193,-0.438,-0.570,1.050
194,-0.528,0.691,0.983
195,-0.174,0.876,0.987
196,0.122,0.468,1.007
197,0.158,0.419,1.021
198,0.045,0.434,1.015
199,-0.206,0.213,1.006
200,0.071,-0.108,0.997
201,0.830,-0.160,1.009
202,0.863,-0.298,1.031
203,-0.285,-0.595,0.999
204,-0.403,0.041,1.005
205,0.190,-0.183,1.007
206,0.187,-0.157,1.003
207,-0.073,0.161,0.992
208,-0.516,0.433,1.010
209,-0.277,1.006,1.063
210,0.224,-0.212,0.993
211,0.137,-0.608,0.996
212,-0.140,-0.466,1.003
213,0.038,-0.439,1.012
214,-0.005,-0.841,1.012
215,0.103,-0.643,1.010
216,-0.186,-0.111,0.999
217,-1.019,0.244,0.974
218,-1.394,0.464,0.978
219,-0.550,0.837,1.013
220,0.486,0.517,1.015
221,-0.001,0.338,1.006
222,-0.142,0.108,0.994
223,0.097,-0.321,1.003
224,0.336,-0.143,1.018
225,0.611,-1.047,1.039
226,-0.292,-0.450,1.035
227,-0.587,0.646,0.984
228,-0.227,0.782,0.989
229,0.172,0.485,1.011
230,0.254,0.459,1.018
231,0.055,0.403,1.017
232,-0.236,0.099,0.999
233,0.169,-0.170,1.000
234,0.824,-0.203,1.013
235,0.683,-0.285,1.027
236,-0.413,-0.598,0.997
237,-0.243,-0.108,1.008
238,0.169,-0.271,1.004
239,0.098,-0.041,1.002
240,-0.112,0.165,0.996
241,-0.654,0.646,1.013
242,-0.204,0.898,1.057
243,0.219,-0.258,0.990
244,0.101,-0.712,0.995
245,-0.078,-0.366,1.006
246,0.008,-0.517,1.012
247,0.009,-0.897,1.010
248,0.147,-0.508,1.010
249,-0.340,0.079,0.996
250,-1.155,0.196,0.964
251,-1.331,0.541,0.994
252,-0.369,0.727,1.011
253,0.552,0.464,1.017
254,0.028,0.166,1.007
255,-0.068,-0.088,0.996
256,0.114,-0.425,0.997
257,0.209,-0.426,1.018
258,0.010,-0.914,1.059
259,-0.423,0.278,1.005
260,-0.488,0.777,0.976
261,0.028,0.752,0.997
262,0.141,0.368,1.017
263,0.198,0.545,1.018
264,-0.139,0.169,1.015
265,-0.153,-0.016,0.996
266,0.527,-0.428,1.002
267,1.014,-0.365,1.020
268,0.273,-0.545,1.017
269,-0.868,-0.051,0.997
270,-0.174,0.394,1.007
271,0.067,0.272,1.004
272,0.124,0.255,0.997
273,0.038,0.446,1.000
274,0.177,0.334,1.037
275,0.773,-0.172,1.069
276,0.323,-0.622,0.980
277,-0.747,-0.368,0.988
278,-0.014,-0.048,1.011
279,0.184,-0.652,1.014
280,0.120,-1.033,1.013
281,0.258,-0.515,1.012
282,-0.485,-0.063,0.989
283,-1.377,0.161,0.963
284,-1.419,0.542,0.995
285,-0.179,0.625,1.014
286,0.645,0.222,1.024
287,-0.098,0.125,1.001
288,-0.037,-0.311,0.995
289,0.077,-0.438,0.995
290,0.081,-0.586,1.018
291,-0.351,-0.572,1.065
292,-0.600,0.533,0.982
293,-0.316,0.889,0.988
294,0.167,0.552,1.004
295,0.081,0.370,1.016
296,0.067,0.456,1.018
297,-0.182,0.242,1.010
298,-0.085,-0.046,0.995
299,0.688,-0.289,1.004
300,0.994,-0.220,1.026
301,0.102,-0.507,1.014
302,-0.801,0.017,0.999
303,-0.099,0.418,1.007
304,0.115,0.235,1.002
305,0.194,0.130,0.996
306,0.125,0.224,1.008
307,0.264,-0.008,1.067
308,0.511,-0.254,1.024
309,-0.197,-0.640,0.978
310,-0.640,0.048,0.993
311,0.066,-0.028,1.013
312,0.206,-0.371,1.013
313,0.266,-0.816,1.019
314,0.212,-0.448,1.007
315,-0.499,-0.197,0.979
316,-1.127,-0.031,0.975
317,-0.982,0.159,1.005
318,-0.084,0.413,1.020
319,0.241,0.441,1.016
320,-0.131,0.152,0.999
321,-0.013,-0.231,0.995
322,0.022,-0.413,0.997
323,-0.030,-0.435,1.018
324,-0.413,-0.331,1.065
325,-0.540,0.366,0.977
326,-0.216,0.628,0.989
327,0.186,0.728,1.002
328,0.120,0.374,1.020
329,0.174,0.648,1.017
330,-0.198,0.252,1.012
331,-0.124,-0.146,0.995
332,0.715,-0.333,0.999
333,1.117,-0.227,1.030
334,0.281,-0.546,1.019
335,-0.857,-0.133,0.998
336,-0.311,0.318,1.004
337,0.020,0.216,1.003
338,0.121,0.338,0.999
339,0.106,0.312,1.009
340,0.361,0.102,1.078
341,0.598,-0.390,1.009
342,0.056,-0.737,0.989
343,-0.792,-0.002,0.988
344,-0.009,-0.012,1.009
345,0.202,-0.502,1.015
346,0.270,-0.589,1.015
347,0.091,-0.376,1.005
348,-0.507,-0.359,0.976
349,-1.023,-0.147,0.983
350,-0.884,0.095,1.002
351,-0.246,0.483,1.017
352,-0.015,0.703,1.011
353,-0.025,0.466,1.000
354,0.032,0.050,1.002
355,0.080,-0.229,1.006
356,0.191,-0.645,1.026
357,-0.024,-0.774,1.054
358,-0.128,0.464,0.992
359,-0.437,0.578,0.982
360,-0.017,0.786,1.004
361,0.129,0.420,1.017
362,0.076,0.442,1.016
363,-0.153,0.138,1.006
364,0.020,-0.285,0.999
365,0.658,-0.283,1.002
366,0.862,-0.171,1.023
367,0.173,-0.510,1.017
368,-0.747,-0.171,1.001
369,-0.335,0.238,1.005
370,0.025,0.248,1.003
371,0.117,0.367,0.999
372,0.143,0.227,1.010
373,0.415,-0.095,1.085
374,0.493,-0.507,0.992
375,-0.168,-0.640,0.990
376,-0.702,0.194,0.991
377,0.021,0.124,1.010
378,0.212,-0.358,1.013
379,0.259,-0.484,1.014
380,0.058,-0.369,1.003
381,-0.384,-0.467,0.979
382,-0.733,-0.372,0.989
383,-0.756,-0.147,1.000
384,-0.225,0.565,1.023
385,-0.281,0.822,1.004
386,-0.138,0.545,0.995
387,-0.020,0.146,1.001
388,0.048,-0.159,1.005
389,0.234,-0.599,1.027
390,0.157,-0.915,1.056
391,-0.022,0.383,0.997
392,-0.477,0.565,0.977
393,-0.180,0.657,1.004
394,0.166,0.568,1.014
395,0.127,0.566,1.017
396,-0.123,0.163,1.007
397,-0.012,-0.265,1.000
398,0.622,-0.270,1.002
399,0.916,-0.144,1.025
400,0.363,-0.535,1.021
401,-0.656,-0.394,1.001
402,-0.490,0.106,1.004
403,0.026,0.230,1.004
404,0.130,0.265,0.999
405,0.084,0.142,1.010
406,0.193,0.174,1.082
407,0.069,-0.617,0.987
408,-0.136,-0.411,0.987
409,-0.391,0.315,0.998
410,0.040,0.068,1.010
411,0.162,-0.397,1.014
412,0.216,-0.401,1.014
413,0.019,-0.275,1.002
414,-0.386,-0.389,0.976
415,-0.678,-0.325,0.991
416,-0.647,-0.130,1.004
417,-0.110,0.630,1.025
418,-0.255,0.777,1.005
419,-0.113,0.311,1.001
420,-0.049,0.020,0.997
421,-0.018,-0.193,1.005
422,0.072,-0.506,1.040
423,0.020,-0.612,1.044
424,-0.017,0.529,0.980
425,-0.471,0.416,0.990
426,-0.069,0.529,1.006
427,0.093,0.413,1.014
428,0.146,0.692,1.016
429,-0.114,0.181,1.006
430,-0.005,0.093,0.998
431,0.539,0.153,0.998
432,1.102,-0.051,1.028
433,0.769,-0.508,1.035
434,-0.558,-0.738,0.994
435,-0.537,-0.089,1.006
436,0.164,-0.292,1.005
437,0.224,-0.343,1.003
438,0.062,-0.132,1.012
439,-0.505,0.700,1.063
440,-0.782,0.454,0.970
441,-0.283,-0.047,0.991
442,0.395,-0.155,1.010
443,0.063,-0.141,1.008
444,0.023,-0.407,1.009
445,0.180,-0.619,1.011
446,0.120,-0.522,1.006
447,-0.169,-0.680,0.983
448,-0.783,-0.392,0.976
449,-1.274,0.145,0.985
450,-1.056,0.646,1.011
451,-0.189,1.032,1.017
452,0.433,0.514,1.014
453,-0.110,0.239,1.003
454,-0.182,-0.016,0.997
455,-0.168,-0.157,1.015
456,0.124,-0.670,1.060
457,0.396,0.135,1.003
458,0.101,0.236,0.983
459,-0.383,0.159,0.996
460,-0.157,0.449,1.007
461,0.008,0.447,1.011
462,0.051,0.631,1.010
463,-0.012,0.708,1.008
464,0.151,0.668,0.981
465,0.744,0.190,1.007
466,1.535,-0.325,1.042
467,1.097,-1.078,1.037
468,-0.611,-0.755,0.987
469,-0.573,-0.011,1.004
470,0.247,-0.273,1.008
471,0.407,-0.494,1.007
472,0.065,-0.427,1.055
473,-0.740,0.051,0.995
474,-0.931,0.159,0.977
475,-0.711,0.468,0.982
476,-0.065,0.219,1.006
477,0.283,-0.303,1.014
478,0.063,-0.189,1.010
479,0.085,-0.359,1.007
480,0.086,-0.620,0.998
481,-0.118,-0.629,0.984
482,-0.608,-0.273,0.975
483,-1.024,0.118,1.003
484,-0.667,0.253,1.017
485,-0.213,0.972,1.019
486,-0.062,0.583,1.008
487,-0.161,0.376,1.001
488,-0.172,0.640,1.014
489,-0.111,-0.241,1.034
490,0.141,-0.388,1.018
491,0.625,-0.076,1.006
492,0.569,-0.239,0.997
493,0.047,-0.061,1.003
494,-0.562,0.537,0.998
495,-0.265,0.500,1.007
496,0.012,0.413,1.007
497,0.061,0.292,0.999
498,0.206,0.384,0.994
499,0.522,0.045,1.007
500,0.856,-0.201,1.037
501,0.584,-0.387,1.030
502,-0.058,-0.889,1.011
503,-0.583,-0.461,1.001
504,0.004,-0.446,1.011
505,-0.088,-0.321,1.022
506,0.039,-0.344,1.021
507,-0.031,-0.032,1.018
508,-0.459,0.741,0.981
509,-0.976,0.516,0.978
510,-0.728,0.504,0.991
511,0.384,0.176,1.014
512,0.544,-0.186,1.022
513,0.098,-0.299,1.009
514,0.179,-0.573,1.006
515,0.032,-1.293,0.982
516,-0.127,-0.864,0.975
517,-0.725,-0.446,0.998
518,-1.476,0.225,1.008
519,-1.288,1.865,1.025
520,0.334,0.518,0.999
521,0.026,0.137,1.018
522,0.191,0.490,1.023
523,-0.128,0.539,1.020
524,-0.344,0.141,1.018
525,0.090,-0.365,1.004
526,1.013,-0.429,1.005
527,1.258,-0.662,1.017
528,-0.089,-0.326,1.000
529,-1.133,0.089,0.991
530,-0.123,0.162,1.008
531,0.013,0.394,1.011
532,0.016,1.117,0.995
533,-0.120,0.995,0.984
534,0.192,0.810,1.024
535,1.152,0.205,1.072
536,1.133,-1.499,1.029
537,-0.507,-1.087,0.985
538,-0.106,-0.222,1.011
539,-0.060,-0.770,1.012
540,0.003,-0.992,1.018
541,0.291,-0.593,1.026
542,-0.322,0.253,0.998
543,-1.579,0.822,0.967
544,-1.806,0.808,0.969
545,-0.501,1.065,0.995
546,0.737,0.378,1.017
547,0.380,0.070,1.017
548,0.323,-0.344,1.013
549,0.477,-0.350,1.013
550,0.579,-1.090,0.998
551,0.022,-1.318,1.013
552,-0.930,-0.004,1.043
553,-0.532,0.880,0.990
554,-0.093,1.010,1.002
555,0.279,0.902,1.012
556,0.271,0.560,1.012
557,0.014,0.332,1.020
558,-0.152,-0.019,1.010
559,0.332,-0.362,1.002
560,1.252,-0.752,1.020
561,1.100,-1.052,1.013
562,-0.407,-0.747,0.993
563,-0.782,-0.261,0.992
564,-0.217,-0.259,1.004
565,-0.093,0.123,1.004
566,-0.462,0.251,1.008
567,-1.021,1.232,0.972
568,-0.549,1.393,1.030
569,0.452,0.107,1.040
570,0.682,-0.677,1.006
571,0.123,-0.670,1.002
572,-0.142,-0.698,1.005
573,-0.057,-0.821,1.010
574,0.065,-0.715,1.011
575,-0.143,-0.105,1.004
576,-1.024,0.446,0.978
577,-1.609,0.815,0.964
578,-0.828,1.039,0.996
579,0.569,0.632,1.017
580,0.398,0.118,1.019
581,0.113,-0.129,1.006
582,0.202,-0.464,1.000
583,0.226,-0.334,1.010
584,0.314,-0.946,1.028
585,-0.601,-0.549,1.041
586,-0.430,0.747,0.987
587,-0.187,0.865,0.989
588,0.157,0.600,1.009
589,0.197,0.464,1.020
590,0.071,0.420,1.017
591,-0.144,0.156,1.006
592,0.218,-0.350,1.002
593,1.002,-0.642,1.011
594,0.643,-0.866,1.014
595,-0.667,-0.300,0.996
596,-0.245,0.189,1.010
597,0.074,0.081,1.007
598,0.041,0.158,0.998
599,-0.257,0.176,1.000
600,-0.676,0.739,1.005
601,0.075,0.945,1.066
602,0.445,-0.395,0.996
603,0.111,-0.635,0.997
604,-0.117,-0.527,1.004
605,-0.082,-0.703,1.010
606,-0.017,-0.847,1.010
607,0.081,-0.500,1.011
608,-0.396,0.107,0.995
609,-1.298,0.505,0.968
610,-1.485,0.864,0.975
611,-0.200,0.930,1.011
612,0.724,0.236,1.024
613,0.094,0.070,1.010
614,0.029,-0.207,1.001
615,0.165,-0.450,0.997
616,0.217,-0.364,1.014
617,0.059,-0.973,1.043
618,-0.599,0.114,1.028
619,-0.398,0.868,0.978
620,-0.014,0.729,0.996
621,0.128,0.344,1.012
622,0.149,0.435,1.025
623,-0.048,0.285,1.013
624,-0.114,0.083,0.998
625,0.447,-0.359,1.005
626,0.976,-0.515,1.016
627,0.213,-0.618,1.015
628,-0.767,0.013,0.999
629,-0.020,0.281,1.011
630,0.105,0.373,1.006
631,0.149,0.156,0.996
632,-0.049,0.350,0.998
633,0.003,0.442,1.027
634,0.625,-0.091,1.074
635,0.248,-0.435,0.980
636,-0.599,-0.551,0.994
637,0.065,-0.220,1.011
638,0.162,-0.650,1.015
639,0.136,-0.893,1.017
640,0.143,-0.519,1.010
641,-0.567,0.098,0.990
642,-1.480,0.349,0.961
643,-1.299,0.654,0.989
644,0.130,0.594,1.019
645,0.518,-0.002,1.022
646,-0.066,-0.015,1.002
647,0.002,-0.347,0.996
648,0.101,-0.473,0.993
649,-0.003,-0.683,1.015
650,-0.542,-0.357,1.063
651,-0.841,0.584,0.984
652,-0.116,0.989,0.990
653,0.255,0.510,1.003
654,0.048,0.356,1.015
655,0.016,0.439,1.022
656,-0.217,0.285,1.009
657,-0.079,0.022,0.995
658,0.773,-0.146,1.007
659,1.134,-0.292,1.029
660,0.043,-0.538,1.012
661,-0.754,0.134,1.001
662,0.006,0.183,1.008
663,0.215,-0.075,1.004
664,0.088,0.098,0.997
665,-0.173,0.431,1.004
666,-0.088,0.643,1.061
667,0.364,-0.267,1.018
668,0.121,-0.433,0.984
669,-0.329,-0.373,1.000
670,0.109,-0.119,1.013
671,0.124,-0.859,1.014
672,0.221,-0.891,1.014
673,0.130,-0.343,1.006
674,-0.841,0.031,0.971
675,-1.570,0.286,0.971
676,-1.043,0.596,1.004
677,0.558,0.427,1.029
678,0.164,0.057,1.013
679,-0.166,0.120,0.996
680,-0.035,-0.371,0.995
681,0.080,-0.437,1.000
682,0.042,-0.749,1.036
683,-0.523,-0.143,1.052
684,-0.670,0.576,0.969
685,-0.091,1.063,0.991
686,0.134,0.374,1.011
687,0.164,0.544,1.016
688,0.014,0.520,1.016
689,-0.304,0.222,1.004
690,0.108,-0.312,0.998
691,1.110,-0.465,1.009
692,1.022,-0.650,1.030
693,-0.598,-0.439,1.000
694,-0.593,0.361,1.004
695,-0.013,0.224,1.007
696,0.123,0.166,1.001
697,-0.008,0.075,1.000
698,-0.429,0.667,1.012
699,0.092,0.723,1.068
700,0.305,-0.499,0.991
701,0.206,-0.365,0.997
702,-0.137,-0.333,1.005
703,0.075,-0.465,1.008
704,0.069,-1.080,1.014
705,0.322,-0.542,1.016
706,-0.261,-0.105,0.994
707,-1.271,0.135,0.957
708,-1.588,0.556,0.988
709,-0.404,0.680,1.015
710,0.799,0.209,1.028
711,-0.071,0.199,1.006
712,-0.138,-0.076,0.995
713,0.039,-0.399,0.995
714,0.128,-0.484,1.014
715,-0.094,-0.975,1.063
716,-0.444,0.261,0.999
717,-0.597,0.762,0.972
718,0.000,0.983,1.000
719,0.142,0.377,1.019
720,0.193,0.680,1.017
721,-0.158,0.347,1.012
722,-0.230,-0.014,0.997
723,0.573,-0.466,1.002
724,1.245,-0.619,1.024
725,0.412,-0.814,1.014
726,-0.809,-0.081,1.001
727,-0.294,0.238,1.006
728,0.056,0.230,1.004
729,0.020,0.048,0.999
730,-0.464,0.349,1.002
731,-0.430,1.152,1.041
732,0.276,0.305,1.021
733,0.448,-0.579,1.002
734,0.075,-0.546,0.999
735,-0.023,-0.340,1.010
736,-0.031,-0.918,1.009
737,0.211,-0.729,1.012
738,0.061,-0.258,1.007
739,-0.797,0.060,0.973
740,-1.489,0.328,0.977
741,-0.988,0.585,1.002
742,0.303,0.657,1.020
743,0.342,0.275,1.018
744,-0.179,0.217,0.994
745,-0.018,-0.220,0.998
746,0.125,-0.270,1.007
747,0.401,-0.858,1.040
748,-0.165,-0.637,1.046
749,-0.389,0.611,0.979
750,-0.479,0.941,0.985
751,0.121,0.541,1.011
752,0.250,0.620,1.017
753,0.040,0.382,1.017
754,-0.230,0.053,1.004
755,0.165,-0.358,0.999
756,0.963,-0.436,1.008
757,0.818,-0.461,1.028
758,-0.568,-0.499,1.000
759,-0.605,0.267,1.003
760,0.060,0.097,1.008
761,0.105,0.147,1.001
762,0.031,0.230,0.997
763,-0.272,0.587,1.015
764,0.111,0.450,1.070
765,0.331,-0.519,0.992
766,-0.095,-0.434,0.989
767,-0.099,-0.089,1.006
768,0.067,-0.454,1.011
769,0.103,-0.959,1.016
770,0.283,-0.565,1.016
771,-0.263,0.008,0.996
772,-1.244,0.184,0.957
773,-1.492,0.518,0.986
774,-0.447,0.633,1.015
775,0.809,0.281,1.030
776,0.099,-0.119,1.009
777,-0.015,-0.216,0.997
778,0.010,-0.391,0.992
779,-0.087,-0.338,1.006
780,-0.390,-0.265,1.060
781,-0.675,0.123,1.001
782,-0.314,0.677,0.983
783,0.271,0.670,1.001
784,0.092,0.278,1.016
785,0.168,0.540,1.017
786,-0.124,0.203,1.014
787,-0.257,0.087,0.996
788,0.244,-0.161,0.995
789,0.871,-0.055,1.016
790,0.665,-0.183,1.030
791,-0.561,-0.290,1.006
792,-0.465,0.209,1.005
793,0.120,-0.024,1.006
794,0.176,-0.033,1.001
795,0.112,0.176,1.000
796,-0.066,0.256,1.020
797,0.111,0.068,1.065
798,0.037,-0.604,0.983
799,-0.364,0.021,0.989
800,-0.038,-0.005,1.008
801,0.158,-0.192,1.013
802,0.189,-0.720,1.018
803,0.236,-0.431,1.011
804,-0.237,-0.210,0.990
805,-0.844,-0.150,0.969
806,-1.014,0.050,0.998
807,-0.384,0.263,1.017
808,0.244,0.676,1.022
809,-0.070,0.209,1.006
810,-0.094,0.036,0.997
811,-0.009,-0.260,0.996
812,-0.023,-0.267,1.010
813,-0.185,-0.671,1.071
814,-0.195,0.299,0.998
815,-0.335,0.568,0.972
816,-0.090,0.557,1.006
817,0.091,0.360,1.012
818,0.119,0.494,1.014
819,-0.084,0.289,1.012
820,-0.175,-0.016,0.999
821,0.290,-0.033,0.993
822,0.754,0.157,1.016
823,0.694,-0.103,1.031
824,-0.307,-0.486,1.010
825,-0.553,-0.179,1.003
826,0.175,-0.259,1.006
827,0.243,-0.277,1.002
828,0.146,-0.040,1.005
829,-0.287,0.342,1.033
830,-0.535,0.546,1.027
831,-0.316,-0.264,0.982
832,0.256,-0.100,1.002
833,-0.070,-0.123,1.007
834,0.070,0.011,1.011
835,0.222,-0.341,1.014
836,0.258,-0.428,1.011
837,0.007,-0.595,0.993
838,-0.303,-0.709,0.980
839,-0.872,-0.443,0.984
840,-0.849,0.156,1.013
841,-0.352,1.159,1.017
842,-0.072,0.642,1.006
843,-0.233,0.326,0.997
844,-0.148,0.064,0.997
845,-0.032,-0.136,1.010
846,0.285,-0.971,1.068
847,0.349,-0.224,1.015
848,-0.030,0.354,0.975
849,-0.593,0.351,0.993
850,-0.193,0.283,1.006
851,0.040,0.801,1.014
852,0.175,1.046,1.010
853,0.068,0.923,1.007
854,0.154,0.543,0.988
855,1.004,-0.041,1.013
856,2.192,-1.099,1.027
857,1.403,-1.366,1.040
858,-0.683,-0.740,0.987
859,-1.008,-0.286,0.989
860,-0.229,-0.348,1.004
861,0.029,-0.256,1.008
862,-0.241,0.122,1.025
863,-0.931,1.127,1.026
864,-0.859,0.343,0.970
865,-0.075,0.186,0.997
866,0.500,-0.253,1.014
867,0.348,-0.352,1.013
868,0.041,-0.574,1.008
869,0.048,-0.535,1.006
870,-0.036,-0.718,0.996
871,-0.407,-0.532,0.981
872,-1.027,-0.022,0.980
873,-1.426,0.589,0.982
874,-1.055,1.148,0.997
875,0.139,1.006,1.013
876,0.512,0.511,1.020
877,0.093,0.290,1.010
878,-0.098,-0.078,1.008
879,0.150,-0.561,1.052
880,0.419,-0.528,1.017
881,0.429,0.051,0.998
882,-0.062,0.012,0.991
883,-0.426,0.236,0.996
884,-0.290,0.601,1.005
885,-0.008,0.594,1.009
886,0.067,0.672,1.008
887,0.124,0.483,0.999
888,0.392,0.155,0.999
889,0.992,-0.324,1.019
890,1.278,-0.949,1.033
891,0.277,-1.217,1.005
892,-0.906,-0.427,0.989
893,-0.205,-0.237,1.011
894,0.093,-0.325,1.008
895,-0.014,-0.105,1.026
896,-0.737,0.911,1.025
897,-0.792,0.558,0.973
898,-0.455,0.235,0.996
899,0.203,0.030,1.006
900,0.505,-0.251,1.017
901,0.207,-0.422,1.010
902,0.020,-0.638,1.005
903,0.027,-0.844,1.000
904,-0.133,-0.690,0.988
905,-0.675,-0.159,0.981
906,-1.435,0.449,0.972
907,-1.620,1.076,0.988
908,-0.531,1.163,1.006
909,0.628,0.665,1.026
910,0.682,0.211,1.026
911,0.023,0.010,1.009
912,0.131,-0.189,1.040
913,0.047,-0.659,1.017
914,0.292,-0.003,1.012
915,0.182,0.042,0.991
916,-0.063,-0.001,0.998
917,-0.287,0.294,1.002
918,-0.177,0.595,1.007
919,0.029,0.486,1.009
920,0.051,0.242,1.006
921,0.183,0.072,0.997
922,0.509,-0.216,1.002
923,0.931,-0.618,1.016
924,0.666,-0.724,1.027
925,-0.240,-0.478,1.015
926,-1.042,-0.054,0.997
927,-0.422,0.285,1.004
928,0.048,0.246,1.011
929,0.383,-0.106,1.042
930,0.057,-0.878,1.011
931,-0.038,-0.810,0.999
932,-0.227,-0.328,0.992
933,-0.688,0.067,0.991
934,-0.905,0.267,0.989
935,-0.189,0.434,1.011
936,-0.022,0.591,1.008
937,-0.122,0.407,0.998
938,-0.126,0.112,0.993
939,0.092,-0.234,1.008
940,0.541,-0.559,1.007
941,0.494,-1.091,1.020
942,-0.844,-0.261,1.028
943,-0.485,1.329,1.003
944,-0.096,0.470,1.002
945,0.159,0.258,1.015
946,0.297,0.515,1.036
947,0.160,0.492,1.010
948,-0.230,0.054,1.014
949,0.045,-0.029,0.996
950,0.812,-0.423,1.011
951,0.935,-0.459,1.017
952,-0.572,-0.555,0.994
953,-0.303,0.078,1.009
954,0.249,-0.356,1.008
955,0.299,-0.427,1.006
956,-0.033,0.021,1.003
957,-0.774,0.362,0.990
958,-1.109,1.328,0.990
959,0.031,0.920,1.061
960,0.773,-0.582,1.008
961,0.065,-0.805,0.994
962,-0.059,-0.273,1.009
963,-0.054,-0.565,1.014
964,-0.098,-0.960,1.009
965,0.028,-0.732,1.008
966,-0.309,-0.040,0.998
967,-1.246,0.472,0.973
968,-1.657,0.786,0.971
969,-0.522,1.083,1.001
970,0.777,0.360,1.021
971,0.115,0.193,1.013
972,-0.129,0.150,0.996
973,0.086,-0.269,1.003
974,0.339,-0.205,1.016
975,0.646,-0.945,1.036
976,-0.308,-0.608,1.041
977,-0.540,0.590,0.989
978,-0.225,0.879,0.987
979,0.141,0.423,1.009
980,0.252,0.431,1.022
981,0.079,0.386,1.014
982,-0.222,0.131,1.003
983,0.069,-0.254,0.998
984,0.773,-0.470,1.010
985,0.538,-0.439,1.022
986,-0.613,-0.177,1.000
987,-0.055,0.143,1.009
988,0.175,0.020,1.006
989,0.115,0.088,1.000
990,-0.157,0.278,0.995
991,-0.418,0.657,1.017
992,0.260,0.420,1.064
993,0.470,-0.350,0.996
994,-0.336,-0.706,0.990
995,-0.001,-0.275,1.010
996,0.148,-0.565,1.015
997,0.091,-0.832,1.015
998,0.080,-0.502,1.008
999,-0.506,0.055,0.991
1000,-1.310,0.244,0.965
1001,-1.288,0.536,0.989
1002,-0.099,0.772,1.018
1003,0.579,0.255,1.021
1004,-0.076,0.053,1.004
1005,-0.094,-0.069,0.994
1006,0.102,-0.377,0.997
1007,0.184,-0.541,1.019
1008,-0.159,-0.760,1.061
1009,-0.512,0.471,0.994
1010,-0.377,0.889,0.984
1011,0.122,0.600,1.001
1012,0.184,0.499,1.018
1013,0.118,0.481,1.017
1014,-0.213,0.136,1.013
1015,-0.088,-0.065,0.995
1016,0.724,-0.333,1.006
1017,1.069,-0.586,1.026
1018,-0.166,-0.613,1.005
1019,-0.707,0.325,1.006
1020,0.020,0.255,1.009
1021,0.149,0.105,1.005
1022,0.057,0.205,0.994
1023,-0.258,0.374,1.006
1024,-0.061,0.682,1.068
1025,0.412,-0.283,1.010
1026,0.132,-0.391,0.986
1027,-0.237,-0.358,1.003
1028,0.129,-0.156,1.012
1029,0.041,-1.024,1.013
1030,0.212,-0.844,1.015
1031,0.012,-0.227,1.002
1032,-0.997,0.146,0.970
1033,-1.606,0.365,0.969
1034,-0.918,0.684,1.008
1035,0.760,0.429,1.031
1036,0.130,0.080,1.015
1037,-0.188,0.246,0.995
1038,-0.079,-0.246,0.994
1039,0.074,-0.326,1.001
1040,0.294,-0.738,1.037
1041,-0.257,-0.581,1.055
1042,-0.462,0.612,0.976
1043,-0.416,1.041,0.986
1044,0.123,0.445,1.012
1045,0.248,0.625,1.015
1046,0.071,0.471,1.017
1047,-0.246,0.121,1.008
1048,0.069,-0.374,0.998
1049,1.023,-0.633,1.006
1050,0.884,-0.820,1.024
1051,-0.643,-0.408,0.999
1052,-0.529,0.425,1.005
1053,-0.000,0.358,1.004
1054,0.081,0.117,0.999
1055,-0.196,0.181,1.001
1056,-0.488,0.797,1.011
1057,0.217,0.681,1.063
1058,0.389,-0.519,0.994
1059,0.163,-0.544,0.997
1060,-0.106,-0.232,1.007
1061,0.048,-0.651,1.012
1062,0.081,-0.992,1.012
1063,0.202,-0.482,1.011
1064,-0.478,0.030,0.989
1065,-1.396,0.195,0.959
1066,-1.407,0.588,0.996
1067,-0.092,0.738,1.017
1068,0.686,0.151,1.025
1069,-0.152,0.229,1.002
1070,-0.179,0.018,0.990
1071,0.050,-0.356,0.998
1072,0.216,-0.448,1.021
1073,0.038,-0.959,1.066
1074,-0.331,0.327,0.997
1075,-0.563,0.864,0.973
1076,-0.002,0.751,1.001
1077,0.207,0.506,1.019
1078,0.198,0.604,1.018
1079,-0.190,0.173,1.011
1080,-0.185,-0.086,0.995
1081,0.661,-0.508,1.002
1082,1.144,-0.684,1.025
1083,0.026,-0.742,1.006
1084,-0.799,0.242,1.005
1085,-0.101,0.315,1.007
1086,0.085,0.184,1.003
1087,0.008,0.077,0.998
1088,-0.450,0.372,1.003
1089,-0.259,1.030,1.057
1090,0.314,-0.043,1.005
1091,0.428,-0.557,1.000
1092,-0.142,-0.388,1.001
1093,0.043,-0.323,1.011
1094,-0.029,-1.021,1.012
1095,0.176,-0.717,1.014
1096,-0.093,-0.170,1.001
1097,-1.040,0.173,0.968
1098,-1.587,0.427,0.973
1099,-0.836,0.840,1.009
1100,0.659,0.507,1.019
1101,0.209,0.104,1.018
1102,-0.162,0.231,0.995
1103,-0.035,-0.181,0.997
1104,0.124,-0.304,1.008
1105,0.351,-0.834,1.040
1106,-0.210,-0.583,1.046
1107,-0.404,0.617,0.978
1108,-0.396,0.991,0.987
1109,0.139,0.529,1.013
1110,0.265,0.648,1.015
1111,0.020,0.371,1.017
1112,-0.250,0.075,1.005
1113,0.157,-0.364,1.000
1114,1.034,-0.562,1.009
1115,0.778,-0.728,1.025
1116,-0.716,-0.360,0.997
1117,-0.413,0.416,1.007
1118,0.041,0.227,1.008
1119,0.112,0.184,1.000
1120,-0.095,0.140,0.999
1121,-0.432,0.696,1.015
1122,0.153,0.505,1.063
1123,0.396,-0.495,0.996
1124,-0.045,-0.455,0.992
1125,-0.021,-0.156,1.010
1126,0.113,-0.547,1.013
1127,0.106,-0.935,1.016
1128,0.193,-0.504,1.010
1129,-0.430,-0.012,0.990
1130,-1.296,0.172,0.960
1131,-1.305,0.488,0.996
1132,-0.055,0.619,1.023
1133,0.552,0.143,1.021
1134,-0.134,0.260,1.002
1135,-0.191,0.036,0.990
1136,0.020,-0.362,0.996
1137,0.164,-0.428,1.019
1138,0.008,-0.913,1.069
1139,-0.374,0.304,0.996
1140,-0.580,0.853,0.972
1141,0.035,0.731,1.002
1142,0.208,0.515,1.019
1143,0.215,0.625,1.018
1144,-0.175,0.219,1.013
1145,-0.207,-0.023,0.996
1146,0.612,-0.453,1.003
1147,1.200,-0.608,1.025
1148,0.183,-0.792,1.010
1149,-0.827,0.156,1.002
1150,-0.138,0.336,1.008
1151,0.084,0.168,1.003
1152,0.075,0.124,0.997
1153,-0.292,0.239,1.006
1154,-0.298,0.939,1.049
1155,0.241,-0.047,1.017
1156,0.410,-0.511,0.999
1157,-0.178,-0.358,0.999
1158,0.070,-0.161,1.011
1159,0.034,-0.932,1.014
1160,0.206,-0.788,1.014
1161,0.044,-0.268,1.004
1162,-0.881,0.102,0.971
1163,-1.508,0.326,0.974
1164,-0.939,0.574,1.006
1165,0.548,0.542,1.026
1166,0.215,0.127,1.015
1167,-0.182,0.236,0.995
1168,-0.080,-0.186,0.994
1169,0.081,-0.351,1.001
1170,0.242,-0.717,1.035
1171,-0.246,-0.583,1.055
1172,-0.444,0.611,0.976
1173,-0.391,0.961,0.988
1174,0.133,0.508,1.011
1175,0.248,0.630,1.015
1176,0.066,0.478,1.017
1177,-0.269,0.120,1.007
1178,0.067,-0.326,0.997
1179,1.013,-0.523,1.007
1180,0.940,-0.673,1.029
1181,-0.609,-0.489,0.998
1182,-0.526,0.440,1.007
1183,-0.001,0.224,1.008
1184,0.107,0.210,0.999
1185,-0.019,0.127,0.998
1186,-0.365,0.596,1.014
1187,0.104,0.556,1.068
1188,0.368,-0.486,0.993
1189,0.008,-0.430,0.992
1190,-0.084,-0.157,1.009
1191,0.082,-0.467,1.011
1192,0.066,-1.039,1.015
1193,0.248,-0.550,1.015
1194,-0.314,-0.020,0.994
1195,-1.309,0.164,0.957
1196,-1.526,0.515,0.987
1197,-0.405,0.715,1.015
1198,0.896,0.277,1.031
1199,-0.044,0.201,1.008
1200,-0.151,0.063,0.993
1201,0.042,-0.401,0.995
1202,0.118,-0.408,1.013
1203,0.025,-1.001,1.064
1204,-0.359,0.068,1.012
1205,-0.610,0.667,0.964
1206,-0.128,0.979,1.002
1207,0.158,0.457,1.015
1208,0.202,0.680,1.015
1209,-0.166,0.324,1.013
1210,-0.251,-0.020,0.997
1211,0.497,-0.483,0.998
1212,1.120,-0.397,1.023
1213,0.544,-0.633,1.021
1214,-0.857,-0.225,1.000
1215,-0.356,0.278,1.006
1216,0.114,0.205,1.005
1217,0.132,0.064,0.999
1218,-0.246,0.149,1.004
1219,-0.474,0.958,1.045
1220,0.046,0.225,1.017
1221,0.404,-0.512,0.999
1222,0.049,-0.309,0.999
1223,0.002,-0.117,1.009
1224,0.021,-0.760,1.013
1225,0.183,-0.856,1.016
1226,0.155,-0.308,1.008
1227,-0.670,0.081,0.976
1228,-1.474,0.332,0.967
1229,-1.160,0.558,1.000
1230,0.243,0.638,1.027
1231,0.587,-0.031,1.023
1232,-0.090,0.002,1.001
1233,-0.014,-0.210,0.996
1234,-0.009,-0.410,0.997
1235,-0.118,-0.276,1.018
1236,-0.463,-0.260,1.061
1237,-0.448,0.413,0.981
1238,-0.140,0.540,0.987
1239,0.163,0.622,1.005
1240,0.129,0.408,1.019
1241,0.060,0.421,1.016
1242,-0.222,0.151,1.006
1243,-0.077,-0.112,0.994
1244,0.591,-0.111,0.999
1245,0.831,-0.044,1.027
1246,0.105,-0.265,1.022
1247,-0.852,0.033,1.002
1248,0.017,0.070,1.009
1249,0.188,-0.121,1.003
1250,0.199,0.062,1.000
1251,0.065,0.029,1.010
1252,-0.041,0.159,1.081
1253,-0.120,-0.427,0.979
1254,-0.125,-0.197,0.989
1255,-0.324,0.187,0.997
1256,0.075,0.058,1.012
1257,0.145,-0.387,1.013
1258,0.209,-0.433,1.013
1259,0.068,-0.313,1.003
1260,-0.325,-0.448,0.976
1261,-0.702,-0.295,0.988
1262,-0.774,-0.050,1.003
1263,-0.175,0.715,1.028
1264,-0.081,0.576,1.008
1265,-0.174,0.256,0.999
1266,-0.092,0.059,0.995
1267,-0.058,-0.208,1.002
1268,0.002,-0.413,1.043
1269,0.037,-0.515,1.039
1270,-0.013,0.429,0.978
1271,-0.449,0.365,0.990
1272,-0.105,0.552,1.006
1273,0.066,0.483,1.011
1274,0.101,0.659,1.012
1275,-0.118,0.200,1.008
1276,0.025,0.371,0.996
1277,0.534,0.254,0.999
1278,1.208,-0.128,1.031
1279,1.039,-0.632,1.038
1280,-0.447,-0.902,0.989
1281,-0.671,-0.191,1.005
1282,0.115,-0.319,1.005
1283,0.223,-0.332,1.005
1284,0.047,-0.163,1.014
1285,-0.665,0.727,1.056
1286,-0.954,0.433,0.966
1287,-0.344,0.178,0.990
1288,0.421,-0.234,1.011
1289,0.265,-0.096,1.013
1290,0.001,-0.377,1.008
1291,0.157,-0.531,1.010
1292,0.105,-0.469,1.004
1293,-0.157,-0.682,0.983
1294,-0.742,-0.320,0.976
1295,-1.238,0.205,0.986
1296,-0.986,0.526,1.014
1297,-0.086,0.808,1.022
1298,0.396,0.541,1.017
1299,-0.102,0.226,1.006
1300,-0.219,0.094,0.992
1301,-0.295,-0.003,1.022
1302,-0.024,-0.255,1.048
1303,0.391,0.238,1.003
1304,0.367,0.083,0.989
1305,-0.034,-0.027,1.002
1306,-0.287,0.547,1.004
1307,-0.009,0.457,1.011
1308,0.103,0.581,1.013
1309,0.133,0.585,1.007
1310,0.181,0.351,0.991
1311,0.679,-0.020,1.000
1312,1.452,-0.546,1.036
1313,1.037,-1.033,1.037
1314,-0.841,-0.691,0.996
1315,-0.697,-0.077,0.999
1316,0.068,-0.216,1.008
1317,0.274,-0.317,1.009
1318,-0.054,-0.171,1.047
1319,-0.550,0.057,0.997
1320,-0.725,0.170,0.987
1321,-0.626,0.386,0.981
1322,-0.156,0.272,1.004
1323,0.351,0.004,1.017
1324,0.114,-0.120,1.011
1325,0.071,-0.327,1.008
1326,0.131,-0.641,1.002
1327,-0.075,-0.608,0.985
1328,-0.613,-0.159,0.971
1329,-1.145,0.206,0.992
1330,-0.945,0.289,1.017
1331,-0.350,0.782,1.022
1332,0.658,0.644,1.029
1333,0.010,0.142,1.010
1334,0.040,0.508,1.018
1335,-0.405,-0.286,1.014
1336,-0.366,-0.047,1.017
1337,0.035,0.356,1.008
1338,0.381,0.142,0.990
1339,0.637,-0.029,1.009
1340,0.163,0.189,1.011
1341,-0.582,0.116,1.002
1342,-0.006,-0.050,1.009
1343,0.132,-0.126,1.009
1344,0.111,0.166,1.003
1345,-0.056,0.519,0.986
1346,-0.215,0.731,0.992
1347,0.204,0.550,1.032
1348,1.234,0.122,1.082
1349,-0.290,-1.211,0.974
1350,-0.176,-0.137,1.008
1351,0.094,-0.548,1.015
1352,-0.042,-0.870,1.017
1353,0.203,-0.877,1.025
1354,0.027,-0.162,1.018
1355,-0.788,0.711,0.976
1356,-1.646,0.748,0.964
1357,-1.205,0.865,0.982
1358,0.563,0.643,1.016
1359,0.784,-0.158,1.031
1360,0.130,-0.403,1.008
1361,0.177,-0.572,1.000
1362,0.188,-0.518,0.994
1363,0.077,-0.655,0.996
1364,-0.335,-0.771,1.022
1365,-1.280,0.244,1.032
1366,-0.323,1.263,0.988
1367,0.264,0.592,1.001
1368,0.153,0.403,1.020
1369,0.175,0.553,1.017
1370,-0.204,0.243,1.020
1371,-0.153,0.095,1.008
1372,0.564,-0.349,1.001
1373,1.452,-0.666,1.016
1374,0.617,-0.817,1.013
1375,-1.155,-0.049,0.990
1376,-0.455,0.413,1.007
1377,0.096,0.250,1.010
1378,0.205,0.310,1.002
1379,0.118,0.142,0.993
1380,-0.086,0.278,1.009
1381,0.231,0.222,1.078
1382,0.574,-0.175,1.010
1383,-0.491,-0.587,0.973
1384,-0.178,-0.213,1.007
1385,0.131,-0.316,1.013
1386,0.010,-1.063,1.015
1387,0.197,-0.776,1.017
1388,-0.028,-0.231,1.003
1389,-1.097,0.322,0.973
1390,-1.773,0.664,0.959
1391,-0.855,0.956,1.002
1392,0.728,0.283,1.028
1393,0.386,-0.298,1.018
1394,0.028,-0.381,1.000
1395,0.071,-0.487,0.992
1396,-0.004,-0.516,0.999
1397,-0.323,-0.298,1.024
1398,-1.076,0.059,1.036
1399,-0.618,0.701,0.985
1400,0.490,1.072,0.993
1401,0.102,0.208,1.015
1402,0.098,0.503,1.024
1403,-0.149,0.285,1.013
1404,-0.264,0.209,1.001
1405,0.284,-0.212,1.000
1406,1.159,-0.282,1.013
1407,0.769,-0.687,1.027
1408,-0.808,-0.189,0.999
1409,-0.370,0.418,1.005
1410,0.098,0.133,1.007
1411,0.133,0.183,0.998
1412,-0.046,0.203,0.998
1413,-0.287,0.589,1.018
1414,0.212,0.208,1.064
1415,0.458,-0.430,0.995
1416,-0.281,-0.464,0.991
1417,-0.028,-0.091,1.007
1418,0.080,-0.577,1.013
1419,0.078,-1.041,1.016
1420,0.245,-0.503,1.014
1421,-0.460,0.112,0.992
1422,-1.509,0.444,0.954
1423,-1.515,0.779,0.982
1424,-0.008,0.805,1.018
1425,0.956,-0.122,1.035
1426,-0.008,-0.050,1.006
1427,-0.009,-0.291,0.997
1428,0.079,-0.547,0.990
1429,-0.027,-0.548,1.009
1430,-0.451,-0.427,1.070
1431,-0.786,0.307,0.985
1432,-0.438,0.719,0.980
1433,0.258,0.729,1.000
1434,0.122,0.353,1.020
1435,0.133,0.590,1.016
1436,-0.222,0.253,1.012
1437,-0.264,0.041,0.996
1438,0.536,-0.422,0.999
1439,1.127,-0.364,1.025
1440,0.347,-0.540,1.021
1441,-1.002,0.102,0.999
1442,-0.174,0.492,1.005
1443,0.082,0.214,1.005
1444,0.117,0.221,0.996
1445,-0.082,0.319,1.003
1446,0.027,0.501,1.057
1447,0.466,-0.304,1.031
1448,0.298,-0.644,0.987
1449,-0.466,0.029,0.994
1450,-0.018,-0.298,1.008
1451,0.074,-0.725,1.012
1452,0.273,-0.612,1.021
1453,0.141,-0.214,1.008
1454,-0.743,0.301,0.981
1455,-1.422,0.495,0.959
1456,-0.966,0.642,1.001
1457,0.335,0.403,1.032
1458,0.769,-0.062,1.026
1459,0.047,-0.197,1.006
1460,0.122,-0.420,0.996
1461,0.073,-0.652,0.992
1462,-0.183,-0.450,1.011
1463,-0.905,-0.084,1.058
1464,-0.908,0.517,0.973
1465,-0.175,0.747,0.990
1466,0.457,0.411,1.010
1467,0.038,0.264,1.016
1468,-0.026,0.350,1.016
1469,-0.198,0.252,1.009
1470,-0.141,-0.044,0.995
1471,0.486,-0.120,0.998
1472,0.765,0.068,1.025
1473,0.235,-0.048,1.025
1474,-0.730,-0.093,1.004
1475,-0.100,-0.002,1.008
1476,0.170,-0.193,1.004
1477,0.170,0.020,0.999
1478,0.002,0.120,1.004
1479,-0.131,0.429,1.071
1480,-0.104,-0.194,0.996
1481,0.045,-0.381,0.988
1482,-0.229,0.142,0.998
1483,0.047,0.009,1.012
1484,0.164,-0.332,1.014
1485,0.243,-0.446,1.015
1486,0.133,-0.331,1.007
1487,-0.320,-0.304,0.978
1488,-0.677,-0.282,0.988
1489,-0.742,-0.132,1.000
1490,-0.204,0.427,1.026
1491,-0.075,0.694,1.010
1492,-0.134,0.310,1.003
1493,-0.100,0.094,0.996
1494,-0.033,-0.229,1.000
1495,0.016,-0.307,1.025
1496,0.016,-0.710,1.061
1497,-0.011,0.332,0.988
1498,-0.428,0.505,0.979
1499,-0.188,0.566,1.003
1500,0.056,0.294,1.013
1501,0.162,0.718,1.017
1502,-0.089,0.166,1.007
1503,-0.079,-0.208,0.998
1504,0.418,-0.139,0.994
1505,0.785,0.025,1.021
1506,0.460,-0.191,1.029
1507,-0.551,-0.346,1.010
1508,-0.452,-0.110,1.003
1509,0.141,-0.147,1.007
1510,0.191,-0.089,1.002
1511,0.074,-0.041,1.007
1512,-0.208,0.468,1.073
1513,-0.406,-0.023,0.978
1514,-0.115,-0.304,0.990
1515,0.056,-0.087,1.002
1516,-0.115,0.188,1.006
1517,0.118,-0.136,1.012
1518,0.240,-0.228,1.014
1519,0.115,-0.311,1.005
1520,-0.137,-0.464,0.984
1521,-0.426,-0.456,0.986
1522,-0.671,-0.234,0.997
1523,-0.456,0.254,1.022
1524,-0.164,0.925,1.015
1525,-0.116,0.335,1.006
1526,-0.112,0.092,0.998
1527,-0.094,-0.091,0.998
1528,-0.190,-0.105,1.034
1529,-0.040,-0.403,1.042
1530,0.151,0.283,0.989
1531,-0.061,0.205,0.988
1532,-0.203,0.110,1.002
1533,-0.025,0.707,1.011
1534,0.094,0.592,1.013
1535,0.120,0.720,1.013
1536,0.071,0.541,1.000
1537,0.308,0.332,0.992
1538,1.227,-0.217,1.018
1539,1.792,-1.104,1.037
1540,0.223,-1.145,1.014
1541,-1.142,-0.227,0.989
1542,-0.255,-0.192,1.007
1543,0.160,-0.381,1.005
1544,0.154,-0.246,1.012
1545,-0.435,0.491,1.050
1546,-0.917,0.625,0.976
1547,-0.695,0.203,0.983
1548,0.063,0.044,1.001
1549,0.526,-0.219,1.017
1550,0.146,-0.389,1.009
1551,-0.041,-0.616,1.007
1552,0.049,-0.929,1.004
1553,0.005,-0.588,0.995
1554,-0.599,-0.164,0.976
1555,-1.718,0.599,0.948
1556,-2.008,1.245,0.982
1557,-0.565,1.216,1.010
1558,1.038,0.650,1.036
1559,0.941,0.028,1.033
1560,0.121,-0.099,1.008
1561,0.042,-0.322,1.021
1562,-0.137,-0.665,1.030
1563,-0.004,0.044,1.010
1564,-0.068,0.268,0.984
1565,-0.180,0.154,0.993
1566,-0.118,0.475,1.005
1567,0.031,0.612,1.011
1568,0.025,0.173,1.009
1569,0.041,0.102,1.008
1570,0.092,0.209,0.999
1571,0.341,-0.010,0.995
1572,0.813,-0.393,1.008
1573,0.927,-0.487,1.036
1574,0.238,-0.345,1.029
1575,-0.879,-0.313,1.001
1576,-0.787,-0.064,0.997
1577,0.035,-0.091,1.009
1578,0.136,-0.480,1.025
1579,-0.003,-0.802,1.017
1580,-0.061,-0.593,1.014
1581,-0.376,0.139,0.994
1582,-0.966,0.605,0.974
1583,-1.083,0.591,0.985
1584,-0.054,0.499,1.007
1585,0.551,-0.081,1.021
1586,-0.016,-0.191,1.008
1587,-0.026,-0.152,1.001
1588,-0.038,-0.332,0.994
1589,-0.091,-0.381,0.981
1590,-0.171,-0.382,1.009
1591,-0.526,-0.178,1.038
1592,-0.979,0.597,1.014
1593,0.270,1.003,0.991
1594,0.066,0.143,1.016
1595,0.126,0.419,1.017
1596,0.024,0.340,1.019
1597,-0.264,0.076,1.018
1598,-0.090,0.095,1.004
1599,0.481,-0.199,0.996
1600,1.035,-0.291,1.010
1601,0.251,-0.489,1.016
1602,-1.045,0.270,0.996
1603,-0.046,0.320,1.011
1604,0.167,0.073,1.009
1605,0.315,0.019,1.003
1606,0.138,0.045,0.991
1607,-0.147,0.256,1.010
1608,0.175,0.275,1.077
1609,0.408,-0.183,1.001
1610,-0.584,-0.682,0.977
1611,-0.035,-0.087,1.008
1612,0.040,-0.492,1.014
1613,0.060,-0.890,1.017
1614,0.187,-0.479,1.019
1615,-0.120,-0.091,0.998
1616,-1.013,0.377,0.979
1617,-1.544,0.654,0.959
1618,-0.692,0.801,1.004
1619,0.832,0.369,1.035
1620,0.358,-0.290,1.017
1621,0.045,-0.423,1.001
1622,0.072,-0.513,0.991
1623,-0.033,-0.521,0.994
1624,-0.357,-0.284,1.015
1625,-1.126,-0.041,1.049
1626,-0.771,0.599,0.982
1627,0.504,1.157,0.996
1628,0.174,0.231,1.015
1629,0.061,0.432,1.019
1630,-0.009,0.461,1.015
1631,-0.288,0.192,1.007
1632,0.053,-0.146,0.996
1633,1.042,-0.236,1.007
1634,1.074,-0.752,1.029
1635,-0.519,-0.448,0.998
1636,-0.598,0.427,1.007
1637,0.034,0.242,1.008
1638,0.138,0.124,1.003
1639,0.027,0.175,0.995
1640,-0.322,0.456,1.011
1641,0.036,0.643,1.076
1642,0.365,-0.421,0.994
1643,0.044,-0.628,0.988
1644,-0.136,-0.051,1.006
1645,0.018,-0.546,1.011
1646,0.020,-1.049,1.014
1647,0.218,-0.667,1.017
1648,-0.224,-0.026,0.997
1649,-1.380,0.508,0.962
1650,-1.789,0.860,0.962
1651,-0.456,0.969,1.012
1652,1.053,0.122,1.037
1653,0.267,-0.195,1.015
1654,0.000,-0.257,1.000
1655,0.086,-0.476,0.992
1656,0.030,-0.566,1.003
1657,-0.267,-0.525,1.048
1658,-0.828,0.088,1.014
1659,-0.619,0.645,0.978
1660,0.204,0.865,1.002
1661,0.161,0.372,1.011
1662,0.167,0.605,1.017
1663,-0.147,0.325,1.014
1664,-0.313,0.134,0.998
1665,0.316,-0.418,1.001
1666,1.155,-0.611,1.015
1667,0.538,-0.730,1.020
1668,-0.899,0.070,1.003
1669,-0.244,0.691,1.003
1670,0.033,0.227,1.005
1671,-0.006,0.169,0.998
1672,-0.286,0.353,1.005
1673,-0.073,0.924,1.038
1674,0.497,-0.175,1.037
1675,0.503,-0.510,1.001
1676,-0.290,-0.714,0.994
1677,-0.115,-0.507,1.007
1678,0.029,-0.854,1.012
1679,0.157,-0.628,1.017
1680,-0.108,-0.061,1.002
1681,-1.099,0.505,0.976
1682,-1.728,0.874,0.956
1683,-0.799,1.071,0.998
1684,0.870,0.514,1.029
1685,0.576,-0.098,1.026
1686,0.021,-0.176,1.004
1687,0.100,-0.472,0.996
1688,0.105,-0.273,1.005
1689,0.265,-0.803,1.027
1690,-0.418,-0.665,1.049
1691,-0.521,0.526,0.983
1692,-0.392,0.938,0.985
1693,0.136,0.606,1.010
1694,0.255,0.623,1.019
1695,0.015,0.317,1.017
1696,-0.198,0.081,1.006
1697,0.171,-0.353,1.000
1698,1.023,-0.673,1.008
1699,0.665,-0.880,1.018
1700,-0.770,-0.297,0.998
1701,-0.387,0.334,1.007
1702,0.083,0.233,1.007
1703,0.056,0.123,1.001
1704,-0.359,0.264,0.999
1705,-0.617,1.001,1.005
1706,0.164,0.738,1.063
1707,0.459,-0.501,0.998
1708,0.256,-0.684,0.998
1709,-0.097,-0.333,1.007
1710,-0.031,-0.823,1.011
1711,0.021,-0.948,1.012
1712,0.086,-0.349,1.010
1713,-0.670,0.265,0.988
1714,-1.587,0.647,0.957
1715,-1.358,0.912,0.984
1716,0.323,0.821,1.019
1717,0.802,0.004,1.032
1718,-0.046,0.155,1.006
1719,-0.018,-0.253,0.997
1720,0.069,-0.388,0.997
1721,0.285,-0.378,1.020
1722,0.076,-1.036,1.063
1723,-0.405,0.164,1.001
1724,-0.613,0.805,0.973
1725,-0.042,0.762,1.001
1726,0.217,0.508,1.019
1727,0.203,0.547,1.017
1728,-0.178,0.074,1.013
1729,-0.093,-0.126,0.995
1730,0.665,-0.502,1.001
1731,0.954,-0.605,1.024
1732,-0.180,-0.652,1.006
1733,-0.734,0.313,1.004
1734,-0.013,0.259,1.008
1735,0.117,0.173,1.003
1736,0.025,0.121,0.996
1737,-0.394,0.343,1.008
1738,-0.193,0.872,1.066
1739,0.275,-0.243,0.999
1740,0.297,-0.518,0.995
1741,-0.112,-0.128,1.005
1742,0.019,-0.392,1.009
1743,0.070,-0.856,1.017
1744,0.235,-0.486,1.017
1745,-0.112,-0.154,0.999
1746,-1.016,0.254,0.969
1747,-1.402,0.456,0.976
1748,-0.590,0.535,1.014
1749,0.733,0.361,1.032
1750,0.150,-0.038,1.013
1751,-0.099,0.095,0.996
1752,0.009,-0.291,0.991
1753,0.012,-0.388,1.000
1754,-0.093,-0.462,1.038
1755,-0.448,-0.078,1.041
1756,-0.493,0.488,0.976
1757,-0.000,0.826,0.994
1758,0.082,0.267,1.014
1759,0.200,0.571,1.017
1760,-0.052,0.231,1.016
1761,-0.236,0.102,1.002
1762,0.128,-0.294,0.996
1763,0.854,-0.431,1.008
1764,0.671,-0.338,1.027
1765,-0.629,-0.202,1.006
1766,-0.600,0.453,1.003
1767,0.015,0.337,1.006
1768,0.116,0.372,0.997
1769,0.142,0.569,0.997
1770,0.142,0.292,1.019
1771,0.870,-0.239,1.098
1772,0.835,-0.812,0.986
1773,-0.332,-0.596,0.992
1774,-0.830,0.276,0.992
1775,0.116,-0.291,1.012
1776,0.229,-0.857,1.017
1777,0.426,-0.540,1.017
1778,-0.118,-0.146,0.999
1779,-1.082,0.086,0.958
1780,-1.388,0.282,0.989
1781,-0.549,0.346,1.014
1782,0.641,0.277,1.032
1783,0.102,0.023,1.010
1784,-0.014,-0.122,0.999
1785,0.049,-0.438,0.992
1786,-0.056,-0.365,1.006
1787,-0.456,-0.309,1.071
1788,-0.657,0.203,0.989
1789,-0.394,0.611,0.979
1790,0.206,0.560,1.006
1791,0.099,0.325,1.012
1792,0.081,0.432,1.016
1793,-0.106,0.248,1.013
1794,-0.207,0.003,0.997
1795,0.237,-0.071,0.993
1796,0.654,0.175,1.016
1797,0.527,0.022,1.029
1798,-0.433,-0.209,1.014
1799,-0.325,-0.096,1.007
1800,0.168,-0.311,1.006
1801,0.259,-0.268,1.001
1802,0.170,-0.040,1.006
1803,-0.253,0.252,1.037
1804,-0.499,0.338,1.028
1805,-0.260,-0.271,0.981
1806,0.123,0.047,0.999
1807,-0.066,-0.101,1.007
1808,0.041,-0.006,1.010
1809,0.181,-0.413,1.015
1810,0.258,-0.368,1.011
1811,-0.005,-0.418,0.991
1812,-0.376,-0.475,0.979
1813,-0.777,-0.253,0.990
1814,-0.768,0.081,1.013
1815,-0.141,0.997,1.022
1816,-0.046,0.213,1.011
1817,-0.179,0.290,0.997
1818,-0.075,-0.037,0.996
1819,-0.070,-0.185,1.006
1820,0.007,-0.693,1.069
1821,0.161,0.022,1.005
1822,-0.096,0.362,0.976
1823,-0.457,0.253,0.994
1824,-0.085,0.480,1.008
1825,0.054,0.500,1.013
1826,0.133,0.786,1.016
1827,0.000,0.454,1.008
1828,0.095,0.289,0.991
1829,0.738,0.073,1.002
1830,1.661,-0.671,1.029
1831,0.901,-1.250,1.032
1832,-0.955,-0.415,0.991
1833,-0.555,-0.049,1.008
1834,0.082,-0.290,1.005
1835,0.189,-0.186,1.010
1836,-0.101,0.202,1.026
1837,-0.785,0.917,1.028
1838,-0.778,0.166,0.973
1839,-0.063,-0.010,0.995
1840,0.592,-0.138,1.019
1841,0.262,-0.276,1.011
1842,-0.082,-0.476,1.006
1843,0.054,-0.826,1.007
1844,0.054,-0.902,0.998
1845,-0.256,-0.431,0.982
1846,-1.318,0.177,0.961
1847,-2.200,1.031,0.960
1848,-1.455,1.278,0.995
1849,0.421,0.985,1.025
1850,1.299,0.302,1.044
1851,0.386,-0.012,1.015
1852,0.064,-0.156,1.008
1853,-0.020,-0.531,1.042
1854,0.007,-0.184,1.014
1855,0.029,0.152,0.995
1856,-0.062,0.102,0.991
1857,-0.129,0.059,1.001
1858,-0.103,0.561,1.007
1859,-0.007,0.530,1.011
1860,0.060,0.349,1.009
1861,0.072,0.235,1.003
1862,0.247,0.096,0.994
1863,0.707,-0.267,1.004
1864,1.137,-0.530,1.029
1865,0.691,-0.654,1.034
1866,-0.506,-0.511,1.010
1867,-1.218,-0.109,0.991
1868,-0.135,0.144,1.009
1869,0.153,-0.425,1.021
1870,0.046,-0.631,1.021
1871,-0.061,-0.725,1.017
1872,-0.275,-0.034,0.999
1873,-0.817,0.518,0.976
1874,-1.092,0.560,0.984
1875,-0.295,0.514,1.000
1876,0.582,0.006,1.024
1877,-0.004,-0.219,1.010
1878,-0.020,-0.165,1.000
1879,-0.042,-0.301,0.993
1880,-0.170,-0.291,0.983
1881,-0.225,-0.260,1.000
1882,-0.451,-0.095,1.029
1883,-0.965,0.220,1.028
1884,0.280,1.283,0.992
1885,0.057,0.041,1.015
1886,0.153,0.452,1.018
1887,0.085,0.385,1.020
1888,-0.233,0.088,1.017
1889,-0.130,0.033,1.011
1890,0.393,-0.116,0.993
1891,1.002,-0.387,1.009
1892,0.473,-0.456,1.016
1893,-1.087,0.005,0.993
1894,-0.126,0.389,1.011
1895,0.147,0.047,1.008
1896,0.253,0.020,1.004
1897,0.098,0.112,0.992
1898,-0.198,0.405,1.004
1899,0.026,0.438,1.057
1900,0.582,-0.161,1.032
1901,-0.314,-0.667,0.975
1902,-0.144,-0.186,1.009
1903,0.022,-0.486,1.012
1904,-0.081,-1.034,1.013
1905,0.217,-0.582,1.023
1906,0.008,-0.068,1.006
1907,-0.974,0.401,0.979
1908,-1.733,0.795,0.956
1909,-1.031,0.977,0.989
1910,0.796,0.540,1.032
1911,0.686,-0.305,1.026
1912,0.097,-0.413,1.005
1913,0.134,-0.574,0.995
1914,0.040,-0.739,0.990
1915,-0.226,-0.532,1.012
1916,-1.068,-0.101,1.056
1917,-1.059,0.613,0.977
1918,0.144,1.221,0.996
1919,0.390,0.295,1.009
1920,-0.037,0.330,1.018
1921,-0.040,0.494,1.017
1922,-0.338,0.245,1.006
1923,-0.033,-0.074,0.995
1924,0.962,-0.060,1.006
1925,1.174,-0.350,1.035
1926,-0.296,-0.526,1.005
1927,-0.731,0.454,1.004
1928,-0.021,0.352,1.008
1929,0.249,0.071,1.004
1930,0.206,0.092,0.997
1931,0.004,0.188,1.010
1932,0.146,0.137,1.084
1933,0.390,-0.308,0.994
1934,-0.261,-0.561,0.981
1935,-0.333,0.052,1.000
1936,-0.050,-0.386,1.008
1937,-0.004,-0.936,1.013
1938,0.231,-0.766,1.020
1939,0.046,-0.071,1.005
1940,-1.028,0.382,0.971
1941,-1.799,0.755,0.951
1942,-0.963,1.002,1.002
1943,0.814,0.488,1.036
1944,0.716,-0.355,1.024
1945,0.057,-0.210,1.004
1946,0.118,-0.453,0.996
1947,0.038,-0.605,0.999
1948,-0.237,-0.474,1.028
1949,-0.859,-0.003,1.036
1950,-0.743,0.556,0.976
1951,-0.072,0.702,0.996
1952,0.343,0.442,1.010
1953,0.041,0.340,1.016
1954,-0.051,0.398,1.013
1955,-0.260,0.167,1.002
1956,0.036,-0.037,0.996
1957,0.655,-0.066,1.006
1958,0.763,0.024,1.029
1959,0.011,-0.171,1.019
1960,-0.694,-0.088,1.003
1961,0.033,-0.083,1.008
1962,0.175,-0.173,1.003
1963,0.156,0.077,0.998
1964,-0.123,0.250,1.012
1965,-0.163,0.429,1.076
1966,-0.096,-0.346,0.978
1967,0.106,-0.191,0.996
1968,-0.210,0.021,1.001
1969,0.045,-0.072,1.011
1970,0.170,-0.447,1.015
1971,0.285,-0.479,1.014
1972,0.032,-0.304,1.000
1973,-0.530,-0.272,0.971
1974,-0.890,-0.122,0.989
1975,-0.709,0.093,1.010
1976,0.017,0.725,1.030
1977,0.026,0.255,1.011
1978,-0.159,0.309,0.999
1979,-0.073,-0.019,0.995
1980,-0.025,-0.231,1.004
1981,0.034,-0.632,1.060
1982,0.089,-0.220,1.024
1983,-0.152,0.395,0.973
1984,-0.556,0.344,0.992
1985,-0.051,0.543,1.007
1986,0.048,0.339,1.015
1987,0.030,0.490,1.013
1988,-0.132,0.078,1.005
1989,0.030,0.340,0.992
1990,0.467,0.376,1.000
1991,0.960,0.012,1.029
1992,0.667,-0.405,1.036
1993,-0.608,-0.671,0.999
1994,-0.201,-0.255,1.007
1995,0.301,-0.463,1.004
1996,0.323,-0.375,1.005
1997,0.062,-0.132,1.021
1998,-0.819,0.680,1.047
1999,-0.977,0.290,0.964
2000,-0.295,0.124,0.989
2001,0.473,-0.073,1.016
2002,0.110,-0.227,1.009
2003,0.030,-0.373,1.008
2004,0.160,-0.768,1.009
2005,0.181,-0.498,1.004
2006,-0.227,-0.551,0.975
2007,-1.003,-0.102,0.970
2008,-1.476,0.332,0.992
2009,-0.899,0.647,1.020
2010,0.457,0.826,1.028
2011,0.266,0.146,1.017
2012,-0.223,0.387,0.997
2013,-0.181,-0.082,0.997
2014,-0.194,-0.125,1.046
2015,0.112,-0.379,1.024
2016,0.410,0.257,0.994
2017,0.156,0.035,0.992
2018,-0.291,0.180,0.999
2019,-0.274,0.621,1.003
2020,0.020,0.412,1.011
2021,0.082,0.615,1.013
2022,0.147,0.418,1.001
2023,0.270,0.206,0.992
2024,0.946,-0.226,1.010
2025,1.498,-0.929,1.039
2026,0.491,-1.149,1.022
2027,-1.266,-0.383,0.988
2028,-0.528,0.054,1.008
2029,0.181,-0.232,1.008
2030,0.248,-0.295,1.013
2031,-0.233,0.310,1.043
2032,-0.615,0.242,0.992
2033,-0.689,0.266,0.982
2034,-0.349,0.267,0.992
2035,0.286,0.045,1.013
2036,0.352,-0.303,1.013
2037,-0.011,-0.247,1.008
2038,0.121,-0.544,1.007
2039,0.099,-0.682,0.996
2040,-0.295,-0.441,0.981
2041,-1.118,0.145,0.966
2042,-1.645,0.645,0.989
2043,-1.199,1.032,1.005
2044,0.108,1.111,1.034
2045,1.242,0.073,1.035
2046,0.375,-0.185,1.016
2047,-0.023,-0.038,1.016
2048,-0.154,-0.212,1.019
2049,-0.215,-0.146,1.017
2050,-0.142,0.314,0.986
2051,-0.055,0.163,0.986
2052,0.120,0.633,1.006
2053,0.063,0.610,1.013
2054,-0.021,-0.587,1.010
2055,0.055,-0.349,1.008
2056,0.124,-0.169,1.006
2057,0.105,0.089,1.000
2058,-0.126,0.345,0.985
2059,-0.349,0.651,1.004
2060,0.076,0.643,1.039
2061,0.817,-0.057,1.045
2062,-0.413,-0.913,0.984
2063,-0.019,-0.101,1.011
2064,0.003,-0.622,1.012
2065,-0.015,-0.898,1.017
2066,0.124,-0.696,1.022
2067,-0.200,0.107,1.006
2068,-1.024,0.752,0.973
2069,-1.586,0.785,0.969
2070,-0.808,0.988,0.982
2071,1.059,0.434,1.037
2072,0.482,-0.163,1.021
2073,0.103,-0.432,1.006
2074,0.142,-0.568,0.996
2075,0.138,-0.500,0.993
2076,-0.002,-0.613,1.008
2077,-0.508,-0.554,1.039
2078,-1.063,0.529,1.004
2079,-0.030,1.057,0.994
2080,0.177,0.454,1.003
2081,0.189,0.474,1.023
2082,0.073,0.444,1.016
2083,-0.197,0.180,1.021
2084,-0.033,-0.010,0.996
2085,0.852,-0.455,1.008
2086,1.343,-0.571,1.016
2087,-0.114,-0.772,1.003
2088,-1.150,0.311,0.997
2089,0.003,0.145,1.010
2090,0.271,-0.111,1.009
2091,0.197,0.044,1.002
2092,-0.159,0.169,0.994
2093,-0.610,0.596,1.015
2094,-0.014,0.576,1.061
2095,0.390,-0.383,0.996
2096,-0.118,-0.630,0.992
2097,-0.040,-0.229,1.008
2098,-0.014,-0.728,1.013
2099,0.026,-0.922,1.013
2100,0.117,-0.455,1.013
2101,-0.471,0.120,0.992
2102,-1.470,0.532,0.961
2103,-1.610,0.857,0.971
2104,-0.030,0.989,1.017
2105,0.969,0.070,1.034
2106,0.044,0.092,1.008
2107,-0.047,-0.098,0.998
2108,0.097,-0.481,0.996
2109,0.183,-0.283,1.013
2110,0.166,-0.956,1.055
2111,-0.420,-0.083,1.022
2112,-0.570,0.732,0.973
2113,-0.148,0.867,0.989
2114,0.176,0.418,1.021
2115,0.255,0.625,1.017
2116,-0.085,0.169,1.017
2117,-0.175,-0.028,0.998
2118,0.476,-0.477,1.004
2119,1.104,-0.884,1.014
2120,0.148,-0.812,1.008
2121,-0.873,0.071,1.000
2122,-0.160,0.320,1.009
2123,0.079,0.354,1.003
2124,-0.142,0.193,0.999
2125,-0.546,0.653,0.991
2126,-0.184,1.130,1.045
2127,0.494,-0.065,1.032
2128,0.637,-0.517,1.008
2129,-0.114,-0.768,0.996
2130,-0.222,-0.717,1.004
2131,-0.098,-1.063,1.007
2132,0.088,-0.730,1.018
2133,-0.134,0.058,1.003
2134,-1.227,0.718,0.975
2135,-1.900,1.097,0.956
2136,-0.872,1.239,0.990
2137,0.969,0.517,1.026
2138,0.717,0.036,1.030
2139,0.098,-0.160,1.006
2140,0.104,-0.455,0.999
2141,0.272,-0.190,1.013
2142,0.600,-1.043,1.024
2143,-0.244,-0.809,1.045
2144,-0.605,0.318,0.992
2145,-0.496,0.813,0.983
2146,0.039,0.654,1.008
2147,0.293,0.759,1.017
2148,0.106,0.432,1.018
2149,-0.165,0.028,1.005
2150,0.196,-0.423,1.001
2151,0.968,-0.807,1.009
2152,0.532,-0.890,1.013
2153,-0.772,-0.373,0.996
2154,-0.284,0.108,1.008
2155,0.120,0.258,1.010
2156,-0.061,0.181,1.005
2157,-0.606,0.788,0.982
2158,-0.549,1.336,1.017
2159,0.298,0.456,1.059
2160,0.669,-0.565,1.008
2161,0.381,-0.748,1.000
2162,-0.237,-0.676,0.999
2163,-0.109,-0.928,1.006
2164,0.047,-0.979,1.011
2165,0.130,-0.333,1.013
2166,-0.747,0.332,0.987
2167,-1.811,0.735,0.957
2168,-1.670,1.263,0.964
2169,0.245,0.891,1.018
2170,1.040,0.177,1.035
2171,0.177,0.225,1.011
2172,0.061,-0.325,1.003
2173,0.105,-0.240,1.008
2174,0.612,-0.561,1.016
2175,0.543,-1.180,1.067
2176,-0.466,-0.283,1.001
2177,-0.733,0.691,0.979
2178,-0.341,0.751,0.997
2179,0.245,0.739,1.014
2180,0.274,0.623,1.019
2181,-0.095,0.032,1.014
2182,-0.055,-0.261,0.996
2183,0.687,-0.710,1.000
2184,0.890,-0.844,1.019
2185,-0.333,-0.717,1.001
2186,-0.791,0.304,1.005
2187,0.013,0.584,1.006
2188,-0.004,0.261,1.000
2189,-0.239,0.283,0.999
2190,-0.408,0.740,1.009
2191,0.273,0.690,1.068
2192,0.505,-0.490,1.002
2193,0.221,-0.618,0.995
2194,-0.278,-0.502,1.001
2195,-0.059,-0.868,1.009
2196,0.090,-0.806,1.015
2197,0.133,-0.252,1.014
2198,-0.609,0.279,0.988
2199,-1.575,0.674,0.960
2200,-1.484,1.028,0.972
2201,0.244,0.913,1.019
2202,1.053,-0.022,1.038
2203,0.060,-0.075,1.009
2204,0.063,-0.349,0.999
2205,0.087,-0.464,0.993
2206,0.185,-0.352,1.013
2207,-0.073,-0.902,1.057
2208,-0.512,0.118,1.008
2209,-0.624,0.677,0.977
2210,-0.020,0.715,0.994
2211,0.176,0.438,1.022
2212,0.250,0.647,1.015
2213,-0.156,0.090,1.016
2214,-0.168,-0.058,0.995
2215,0.560,-0.447,1.001
2216,1.033,-0.630,1.021
2217,0.001,-0.707,1.009
2218,-0.928,0.327,1.001
2219,-0.037,0.373,1.009
2220,0.125,0.235,1.003
2221,0.067,0.179,0.995
2222,-0.275,0.282,1.005
2223,-0.187,0.771,1.055
2224,0.326,-0.227,1.017
2225,0.386,-0.471,0.994
2226,-0.225,-0.143,1.001
2227,0.013,-0.267,1.009
2228,0.090,-0.799,1.015
2229,0.258,-0.612,1.019
2230,0.050,-0.262,1.003
2231,-0.879,0.169,0.973
2232,-1.479,0.393,0.968
2233,-0.888,0.569,1.008
2234,0.599,0.459,1.033
2235,0.370,-0.153,1.018
2236,-0.089,0.153,1.001
2237,-0.008,-0.217,0.994
2238,0.013,-0.428,0.995
2239,-0.089,-0.365,1.022
2240,-0.399,-0.216,1.064
2241,-0.488,0.406,0.975
2242,-0.140,0.702,0.994
2243,0.076,0.351,1.004
2244,0.162,0.472,1.017
2245,0.110,0.473,1.017
2246,-0.214,0.070,1.010
2247,-0.064,-0.205,0.994
2248,0.695,-0.555,0.999
2249,0.806,-0.409,1.025
2250,-0.318,-0.366,1.013
2251,-0.860,0.459,1.001
2252,-0.047,0.541,1.006
2253,0.070,0.380,1.001
2254,0.085,0.487,0.994
2255,0.118,0.432,1.014
2256,0.721,-0.028,1.098
2257,0.988,-0.623,0.996
2258,0.011,-0.949,0.993
2259,-0.920,0.024,0.990
2260,-0.094,-0.221,1.005
2261,0.094,-0.886,1.015
2262,0.394,-0.630,1.021
2263,0.080,-0.020,1.004
2264,-1.086,0.216,0.966
2265,-1.701,0.544,0.963
2266,-0.900,0.816,1.006
2267,0.747,0.408,1.037
2268,0.598,-0.262,1.020
2269,0.059,-0.249,1.003
2270,0.124,-0.527,0.994
2271,-0.014,-0.623,0.999
2272,-0.344,-0.383,1.044
2273,-0.943,0.131,1.015
2274,-0.719,0.648,0.976
2275,0.081,0.659,1.001
2276,0.311,0.348,1.010
2277,0.057,0.416,1.016
2278,-0.099,0.332,1.013
2279,-0.265,0.115,1.000
2280,0.117,-0.116,0.994
2281,0.696,-0.040,1.008
2282,0.692,0.044,1.029
2283,-0.184,-0.102,1.016
2284,-0.641,-0.112,1.004
2285,0.089,-0.211,1.008
2286,0.180,-0.207,1.001
2287,0.119,0.088,0.997
2288,-0.221,0.397,1.014
2289,-0.291,0.468,1.065
2290,-0.100,-0.294,0.980
2291,0.262,-0.040,1.000
2292,-0.163,-0.118,1.002
2293,0.043,-0.020,1.011
2294,0.199,-0.432,1.015
2295,0.325,-0.445,1.015
2296,0.036,-0.351,0.998
2297,-0.486,-0.370,0.973
2298,-0.834,-0.173,0.990
2299,-0.733,0.038,1.010
2300,-0.061,0.781,1.028
2301,0.000,0.252,1.010
2302,-0.157,0.290,0.999
2303,-0.061,-0.041,0.996
2304,-0.016,-0.242,1.004
2305,0.014,-0.651,1.062
2306,0.063,-0.157,1.019
2307,-0.155,0.395,0.973
2308,-0.529,0.346,0.993
2309,-0.056,0.489,1.006
2310,0.044,0.354,1.013
2311,0.026,0.477,1.012
2312,-0.129,0.103,1.007
2313,0.031,0.380,0.993
2314,0.452,0.380,1.000
2315,0.986,0.015,1.029
2316,0.755,-0.381,1.038
2317,-0.605,-0.737,0.998
2318,-0.285,-0.243,1.007
2319,0.310,-0.475,1.005
2320,0.365,-0.444,1.005
2321,0.142,-0.197,1.020
2322,-0.848,0.486,1.047
2323,-1.116,0.348,0.964
2324,-0.480,0.313,0.983
2325,0.431,0.026,1.015
2326,0.248,-0.218,1.012
2327,0.017,-0.345,1.009
2328,0.130,-0.678,1.009
2329,0.146,-0.456,1.004
2330,-0.144,-0.526,0.980
2331,-0.817,-0.150,0.972
2332,-1.285,0.230,0.994
2333,-0.849,0.358,1.020
2334,0.032,0.887,1.025
2335,0.416,0.337,1.018
2336,-0.176,0.495,1.002
2337,-0.190,0.020,0.997
2338,-0.153,-0.110,1.040
2339,0.142,-0.520,1.030
2340,0.460,0.108,1.000
2341,0.243,0.016,0.989
2342,-0.298,0.104,0.998
2343,-0.418,0.626,1.001
2344,-0.010,0.229,1.010
2345,0.052,0.510,1.011
2346,0.118,0.415,1.002
2347,0.178,0.242,0.989
2348,0.685,-0.144,1.003
2349,1.211,-0.373,1.040
2350,0.790,-0.749,1.037
2351,-0.752,-0.574,1.001
2352,-0.927,0.176,0.997
2353,0.133,-0.042,1.009
2354,0.294,-0.560,1.014
2355,0.003,-0.646,1.038
2356,-0.173,-0.429,1.013
2357,-0.566,0.111,0.984
2358,-0.948,0.466,0.978
2359,-0.819,0.490,0.991
2360,0.223,0.407,1.014
2361,0.303,-0.221,1.015
2362,-0.001,-0.186,1.007
2363,0.017,-0.335,1.000
2364,-0.080,-0.348,0.989
2365,-0.336,-0.174,0.977
2366,-0.466,-0.119,1.007
2367,-0.590,0.161,1.025
2368,-0.548,0.444,1.031
2369,0.284,0.864,1.001
2370,0.068,0.103,1.013
2371,0.167,0.496,1.019
2372,0.010,0.322,1.020
2373,-0.327,-0.020,1.017
2374,-0.084,0.034,1.012
2375,0.513,-0.118,0.992
2376,0.980,-0.406,1.010
2377,0.267,-0.331,1.010
2378,-1.099,0.116,0.994
2379,-0.072,0.337,1.011
2380,0.167,-0.119,1.008
2381,0.260,-0.059,1.004
2382,0.020,0.156,0.992
2383,-0.304,0.529,0.996
2384,-0.146,0.558,1.032
2385,0.745,0.041,1.059
2386,-0.245,-0.834,0.977
2387,-0.101,-0.175,1.010
2388,-0.067,-0.529,1.008
2389,0.024,-0.854,1.016
2390,0.312,-0.650,1.027
2391,-0.033,-0.211,1.008
2392,-0.876,0.314,0.978
2393,-1.691,0.726,0.963
2394,-1.233,0.910,0.978
2395,0.737,0.566,1.033
2396,0.724,-0.183,1.027
2397,-0.007,-0.246,1.005
2398,0.073,-0.556,0.996
2399,0.074,-0.561,0.987
2400,-0.132,-0.564,1.006
2401,-0.615,-0.223,1.051
2402,-1.205,0.296,0.994
2403,-0.042,1.119,1.003
2404,0.328,0.437,0.995
2405,0.156,0.462,1.020
2406,-0.014,0.436,1.018
2407,-0.263,0.243,1.017
2408,-0.183,0.162,0.997
2409,0.637,-0.254,1.005
2410,1.342,-0.262,1.018
2411,0.385,-0.762,1.019
2412,-1.099,0.072,0.994
2413,-0.121,0.302,1.010
2414,0.240,0.001,1.009
2415,0.235,0.084,1.001
2416,-0.062,0.186,0.993
2417,-0.422,0.514,1.017
2418,0.035,0.252,1.062
2419,0.448,-0.269,0.994
2420,-0.247,-0.554,0.991
2421,-0.016,-0.063,1.007
2422,0.003,-0.709,1.012
2423,0.141,-0.871,1.017
2424,0.224,-0.467,1.014
2425,-0.388,0.044,0.993
2426,-1.423,0.365,0.956
2427,-1.520,0.663,0.980
2428,-0.206,0.754,1.019
2429,1.032,0.007,1.035
2430,-0.009,-0.001,1.009
2431,-0.063,-0.079,0.996
2432,0.052,-0.472,0.991
2433,0.011,-0.473,1.006
2434,-0.269,-0.494,1.063
2435,-0.651,0.129,1.000
2436,-0.515,0.618,0.980
2437,0.181,0.853,0.995
2438,0.114,0.300,1.022
2439,0.178,0.603,1.016
2440,-0.177,0.207,1.015
2441,-0.280,0.079,0.996
2442,0.376,-0.406,0.999
2443,1.045,-0.545,1.017
2444,0.417,-0.608,1.021
2445,-0.992,0.109,1.001
2446,-0.159,0.720,1.004
2447,0.019,0.338,1.004
2448,0.007,0.281,0.996
2449,-0.145,0.443,1.006
2450,0.203,0.538,1.054
2451,0.724,-0.350,1.039
2452,0.426,-0.507,0.988
2453,-0.540,-0.547,0.995
2454,-0.042,-0.294,1.007
2455,0.037,-0.885,1.013
2456,0.214,-0.762,1.017
2457,0.016,-0.117,1.003
2458,-1.067,0.326,0.974
2459,-1.768,0.675,0.956
2460,-0.970,0.889,1.000
2461,0.701,0.508,1.029
2462,0.687,-0.185,1.026
2463,0.016,-0.162,1.004
2464,0.098,-0.468,0.993
2465,0.061,-0.588,0.996
2466,-0.159,-0.555,1.023
2467,-0.739,-0.087,1.049
2468,-0.763,0.462,0.975
2469,-0.059,0.697,0.996
2470,0.243,0.597,1.005
2471,0.162,0.534,1.019
2472,-0.045,0.437,1.015
2473,-0.340,0.186,1.004
2474,0.047,-0.252,0.995
2475,0.986,-0.546,1.008
2476,0.907,-0.523,1.029
2477,-0.644,-0.314,1.008
2478,-0.591,0.764,0.999
2479,-0.014,0.321,1.007
2480,0.045,0.246,0.998
2481,-0.128,0.304,1.002
2482,-0.050,0.613,1.020
2483,0.511,-0.139,1.066
2484,0.643,-0.419,0.997
2485,-0.285,-0.623,0.993
2486,-0.288,-0.088,1.000
2487,0.019,-0.764,1.013
2488,0.184,-0.798,1.018
2489,0.201,-0.187,1.011
2490,-0.700,0.317,0.985
2491,-1.636,0.618,0.949
2492,-1.300,0.859,0.988
2493,0.271,0.724,1.026
2494,1.143,-0.177,1.037
2495,0.092,-0.266,1.008
2496,0.138,-0.450,0.997
2497,0.085,-0.704,0.991
2498,-0.165,-0.483,1.008
2499,-0.864,-0.117,1.062
2500,-0.965,0.464,0.973
2501,-0.343,0.728,0.987
2502,0.536,0.526,1.012
2503,0.072,0.251,1.015
2504,0.026,0.464,1.015
2505,-0.224,0.239,1.009
2506,-0.178,-0.017,0.996
2507,0.490,-0.267,0.997
2508,0.802,-0.047,1.023
2509,0.290,-0.032,1.025
2510,-0.726,-0.043,1.005
2511,-0.222,0.080,1.006
2512,0.109,-0.061,1.005
2513,0.140,0.167,0.997
2514,0.017,0.277,1.003
2515,0.025,0.278,1.067
2516,0.197,-0.382,1.013
2517,0.158,-0.384,0.988
2518,-0.502,0.188,0.992
2519,0.022,-0.055,1.009
2520,0.194,-0.311,1.014
2521,0.285,-0.406,1.018
2522,0.168,-0.326,1.008
2523,-0.400,-0.120,0.977
2524,-0.782,-0.073,0.985
2525,-0.631,-0.054,1.004
2526,-0.023,0.183,1.027
2527,0.011,0.565,1.014
2528,-0.066,0.238,1.006
2529,-0.010,-0.085,0.996
2530,0.040,-0.401,0.997
2531,-0.076,-0.380,1.020
2532,-0.332,-0.426,1.060
2533,-0.310,0.425,0.981
2534,-0.393,0.439,0.982
2535,0.073,0.560,1.006
2536,0.067,0.284,1.014
2537,0.122,0.580,1.017
2538,-0.140,0.143,1.006
2539,-0.100,-0.187,0.996
2540,0.417,-0.183,0.994
2541,0.678,0.109,1.022
2542,0.273,-0.048,1.026
2543,-0.604,-0.247,1.010
2544,-0.256,-0.091,1.005
2545,0.144,-0.230,1.004
2546,0.185,-0.038,1.002
2547,0.000,0.078,1.006
2548,-0.208,0.463,1.075
2549,-0.347,-0.202,0.978
2550,0.008,-0.234,0.992
2551,-0.076,0.154,1.001
2552,-0.042,0.034,1.008
2553,0.122,-0.112,1.012
2554,0.265,-0.310,1.015
2555,0.145,-0.313,1.005
2556,-0.186,-0.352,0.979
2557,-0.463,-0.377,0.987
2558,-0.619,-0.208,1.001
2559,-0.391,0.306,1.026
2560,-0.132,0.791,1.010
2561,-0.084,0.261,1.010
2562,-0.094,0.161,0.998
2563,-0.009,-0.184,1.001
2564,-0.027,-0.402,1.040
2565,0.016,-0.497,1.038
2566,0.007,0.250,0.984
2567,-0.344,0.291,0.987
2568,-0.272,0.266,1.001
2569,0.004,0.466,1.010
2570,0.065,0.526,1.013
2571,-0.014,0.326,1.010
2572,-0.049,0.447,0.997
2573,0.205,0.435,0.987
2574,0.918,0.030,1.016
2575,1.288,-0.265,1.049
2576,0.319,-0.719,1.028
2577,-1.068,-0.375,0.988
2578,0.015,-0.352,1.008
2579,0.293,-0.584,1.003
2580,0.344,-0.475,1.010
2581,-0.173,-0.000,1.053
2582,-1.148,0.446,0.985
2583,-1.156,0.453,0.972
2584,-0.484,0.446,0.987
2585,0.513,0.102,1.019
2586,0.506,-0.095,1.017
2587,0.010,-0.377,1.008
2588,0.133,-0.771,1.007
2589,0.154,-0.615,1.001
2590,-0.256,-0.350,0.975
2591,-1.124,0.065,0.966
2592,-1.563,0.510,0.995
2593,-0.940,0.741,1.018
2594,0.413,0.790,1.033
2595,0.806,0.081,1.024
2596,-0.122,0.205,1.003
2597,-0.020,0.341,1.008
2598,-0.037,-0.103,1.040
2599,-0.114,-0.291,1.016
2600,0.279,0.217,1.000
2601,0.343,0.004,0.995
2602,0.176,-0.072,1.004
2603,-0.298,0.105,1.002
2604,-0.251,0.068,1.005
2605,0.030,0.012,1.010
2606,0.102,0.111,1.007
2607,0.088,0.098,0.996
2608,-0.041,0.207,0.986
2609,-0.016,0.439,1.012
2610,0.340,0.415,1.037
2611,0.444,-0.009,1.043
2612,-0.482,-0.850,0.988
2613,-0.049,-0.136,1.009
2614,0.001,-0.590,1.013
2615,0.067,-0.813,1.020
2616,0.180,-0.648,1.024
2617,-0.157,-0.114,1.012
2618,-0.996,0.749,0.969
2619,-1.592,0.731,0.966
2620,-0.881,0.895,0.987
2621,1.072,0.399,1.031
2622,0.452,-0.333,1.022
2623,0.028,-0.252,1.004
2624,0.136,-0.576,0.997
2625,0.084,-0.673,0.985
2626,-0.120,-0.732,0.998
2627,-0.541,-0.350,1.017
2628,-1.460,0.328,1.027
2629,-0.080,1.393,0.997
2630,0.289,0.258,1.009
2631,0.140,0.496,1.021
2632,0.040,0.482,1.016
2633,-0.548,0.055,1.017
2634,-0.193,0.243,1.005
2635,0.558,-0.141,0.998
2636,1.393,-0.360,1.018
2637,0.530,-0.498,1.018
2638,-1.254,0.275,0.992
2639,-0.135,0.460,1.010
2640,0.171,-0.012,1.010
2641,0.377,0.035,1.006
2642,0.212,0.070,0.993
2643,-0.178,0.265,1.002
2644,0.003,0.394,1.063
2645,0.557,-0.132,1.028
2646,-0.326,-0.698,0.972
2647,-0.164,-0.197,1.009
2648,-0.039,-0.463,1.009
2649,-0.069,-0.981,1.012
2650,0.213,-0.683,1.022
2651,0.115,-0.086,1.011
2652,-0.804,0.324,0.983
2653,-1.715,0.723,0.956
2654,-1.311,1.006,0.977
2655,0.535,0.706,1.028
2656,0.948,-0.190,1.034
2657,0.102,-0.318,1.007
2658,0.146,-0.509,0.997
2659,0.097,-0.580,0.991
2660,-0.056,-0.637,1.012
2661,-0.692,-0.404,1.060
2662,-0.961,0.402,0.979
2663,-0.273,0.914,0.995
2664,0.390,0.713,0.997
2665,0.156,0.496,1.019
2666,-0.045,0.373,1.015
2667,-0.327,0.149,1.011
2668,-0.097,-0.056,0.994
2669,0.869,-0.252,1.006
2670,1.161,-0.652,1.028
2671,-0.230,-0.616,1.003
2672,-0.798,0.441,1.004
2673,0.022,0.264,1.010
2674,0.150,0.229,1.002
2675,0.010,0.142,0.995
2676,-0.406,0.432,1.007
2677,-0.061,0.784,1.071
2678,0.369,-0.380,0.999
2679,0.292,-0.455,0.992
2680,-0.171,-0.194,1.004
2681,-0.007,-0.519,1.008
2682,0.059,-0.987,1.015
2683,0.240,-0.611,1.018
2684,-0.167,-0.057,0.998
2685,-1.277,0.372,0.963
2686,-1.728,0.748,0.965
2687,-0.611,0.854,1.011
2688,1.126,0.197,1.041
2689,0.217,-0.162,1.014
2690,-0.040,-0.104,1.000
2691,0.057,-0.411,0.992
2692,0.038,-0.526,1.000
2693,-0.212,-0.532,1.043
2694,-0.704,-0.018,1.025
2695,-0.674,0.507,0.974
2696,0.122,0.856,1.001
2697,0.100,0.359,1.009
2698,0.185,0.605,1.017
2699,-0.082,0.380,1.014
2700,-0.340,0.140,1.001
2701,0.149,-0.317,0.997
2702,1.008,-0.546,1.011
2703,0.738,-0.590,1.025
2704,-0.784,-0.134,1.005
2705,-0.384,0.771,1.001
2706,-0.009,0.347,1.005
2707,0.008,0.302,0.998
2708,-0.145,0.453,1.004
2709,0.111,0.642,1.027
2710,0.750,-0.259,1.066
2711,0.665,-0.395,0.994
2712,-0.364,-0.834,0.993
2713,-0.371,-0.538,1.001
2714,-0.007,-0.762,1.010
2715,0.129,-0.783,1.017
2716,0.096,0.003,1.010
2717,-0.812,0.404,0.986
2718,-1.644,0.715,0.960
2719,-1.224,1.080,0.980
2720,0.464,0.769,1.021
2721,0.962,0.100,1.037
2722,0.099,-0.096,1.009
2723,0.062,-0.444,1.000
2724,0.228,-0.225,1.011
2725,0.567,-0.923,1.012
2726,-0.007,-1.002,1.057
2727,-0.632,0.118,0.997
2728,-0.681,0.759,0.978
2729,-0.107,0.761,1.001
2730,0.285,0.740,1.018
2731,0.202,0.587,1.018
2732,-0.165,0.041,1.012
2733,0.012,-0.265,0.998
2734,0.869,-0.694,1.006
2735,0.932,-1.085,1.013
2736,-0.406,-0.590,0.998
2737,-0.712,0.139,1.004
2738,-0.013,0.244,1.010
2739,0.011,0.309,1.004
2740,-0.434,0.471,0.996
2741,-0.547,1.228,0.995
2742,0.151,0.834,1.069
2743,0.542,-0.468,1.008
2744,0.610,-0.590,1.003
2745,-0.152,-0.712,1.000
2746,-0.211,-0.884,1.004
2747,0.003,-1.031,1.008
2748,0.215,-0.516,1.017
2749,-0.363,0.140,0.996
2750,-1.511,0.501,0.964
2751,-1.825,1.046,0.962
2752,-0.308,1.015,1.008
2753,1.006,0.270,1.030
2754,0.211,0.296,1.016
2755,-0.051,0.134,1.002
2756,0.090,-0.254,1.008
2757,0.565,-0.341,1.016
2758,1.049,-1.374,1.037
2759,-0.049,-0.674,1.040
2760,-0.843,0.318,0.989
2761,-0.760,0.891,0.977
2762,0.078,0.569,1.011
2763,0.320,0.612,1.018
2764,0.054,0.113,1.020
2765,-0.111,-0.064,1.000
2766,0.248,-0.464,0.999
2767,0.779,-0.741,1.007
2768,0.230,-0.634,1.016
2769,-0.928,0.005,1.000
2770,-0.158,0.359,1.008
2771,0.104,0.327,1.005
2772,0.039,0.280,0.996
2773,-0.250,0.308,0.999
2774,-0.264,0.745,1.028
2775,0.370,-0.013,1.052
2776,0.597,-0.292,0.999
2777,-0.312,-0.412,0.996
2778,-0.020,-0.191,1.006
2779,0.008,-0.918,1.014
2780,0.197,-0.708,1.020
2781,0.153,-0.184,1.009
2782,-0.697,0.228,0.984
2783,-1.568,0.587,0.953
2784,-1.142,0.751,0.993
2785,0.556,0.577,1.033
2786,0.659,-0.344,1.024
2787,-0.020,-0.102,1.005
2788,0.029,-0.330,0.995
2789,0.024,-0.485,0.987
2790,-0.140,-0.377,1.008
2791,-0.626,-0.191,1.071
2792,-0.828,0.283,0.977
2793,-0.171,0.803,0.992
2794,0.302,0.504,1.000
2795,0.101,0.343,1.019
2796,0.122,0.544,1.017
2797,-0.242,0.074,1.013
2798,-0.182,0.051,0.995
2799,0.499,-0.342,0.999
2800,0.978,-0.410,1.021
2801,0.211,-0.466,1.020
2802,-1.041,0.255,0.998
2803,-0.107,0.559,1.006
2804,0.081,0.261,1.005
2805,0.135,0.350,0.994
2806,0.080,0.480,1.004
2807,0.277,0.224,1.056
2808,0.941,-0.341,1.054
2809,0.465,-0.801,0.984
2810,-0.902,-0.180,0.986
2811,-0.153,-0.039,1.004
2812,0.085,-0.721,1.014
2813,0.263,-0.940,1.019
2814,0.354,-0.327,1.015
2815,-0.593,0.104,0.985
2816,-1.605,0.358,0.953
2817,-1.435,0.666,0.991
2818,0.080,0.610,1.025
2819,0.989,-0.091,1.032
2820,0.010,-0.138,1.006
2821,0.062,-0.307,0.996
2822,0.077,-0.530,0.994
2823,-0.146,-0.470,1.012
2824,-0.662,-0.158,1.064
2825,-0.761,0.361,0.976
2826,-0.314,0.607,0.985
2827,0.329,0.602,1.008
2828,0.073,0.319,1.016
2829,0.033,0.458,1.015
2830,-0.216,0.209,1.006
2831,-0.129,-0.041,0.996
2832,0.505,-0.151,0.997
2833,0.780,0.073,1.025
2834,0.294,-0.053,1.025
2835,-0.736,-0.228,1.005
2836,-0.122,-0.124,1.007
2837,0.169,-0.321,1.005
2838,0.170,0.020,1.000
2839,-0.070,0.208,1.006
2840,-0.423,0.660,1.071
2841,-0.348,-0.027,0.985
2842,0.254,-0.169,0.995
2843,0.054,-0.034,1.001
2844,-0.013,-0.036,1.010
2845,0.143,-0.139,1.012
2846,0.322,-0.475,1.016
2847,0.225,-0.419,1.007
2848,-0.207,-0.419,0.979
2849,-0.653,-0.331,0.984
2850,-0.855,-0.142,0.998
2851,-0.438,0.363,1.024
2852,0.009,0.687,1.012
2853,-0.095,0.286,1.007
2854,-0.138,0.186,0.996
2855,-0.022,-0.256,0.999
2856,0.028,-0.431,1.028
2857,0.070,-0.635,1.056
2858,-0.004,0.258,0.985
2859,-0.472,0.377,0.982
2860,-0.325,0.377,1.000
2861,0.020,0.438,1.010
2862,0.054,0.553,1.013
2863,-0.081,0.242,1.009
2864,-0.071,0.377,0.998
2865,0.233,0.463,0.991
2866,0.871,0.123,1.017
2867,1.186,-0.221,1.042
2868,0.281,-0.772,1.024
2869,-0.956,-0.451,0.990
2870,0.068,-0.378,1.008
2871,0.341,-0.567,1.003
2872,0.332,-0.340,1.011
2873,-0.228,0.102,1.048
2874,-1.246,0.529,0.990
2875,-1.037,0.421,0.972
2876,-0.141,0.278,0.996
2877,0.686,-0.033,1.021
2878,0.121,-0.198,1.009
2879,0.048,-0.463,1.008
2880,0.151,-0.475,1.009
2881,0.130,-0.515,0.996
2882,-0.277,-0.480,0.978
2883,-0.895,-0.026,0.976
2884,-1.102,0.147,1.010
2885,-0.515,0.401,1.021
2886,0.195,0.897,1.019
2887,0.098,0.297,1.013
2888,-0.227,0.430,0.996
2889,-0.207,-0.079,1.000
2890,-0.011,-0.334,1.056
2891,0.300,-0.254,1.017
2892,0.480,0.113,0.988
2893,0.085,-0.053,0.998
2894,-0.499,0.223,0.997
2895,-0.254,0.511,1.004
2896,0.010,0.278,1.010
2897,0.069,0.550,1.011
2898,0.093,0.395,0.998
2899,0.248,0.207,0.986
2900,0.838,-0.194,1.013
2901,1.207,-0.353,1.050
2902,0.452,-0.737,1.028
2903,-1.160,-0.297,0.992
2904,-0.375,0.132,1.005
2905,0.251,-0.296,1.009
2906,0.196,-0.823,1.030
2907,-0.121,-0.589,1.022
2908,-0.312,-0.178,1.006
2909,-0.828,0.381,0.976
2910,-1.085,0.635,0.978
2911,-0.563,0.514,0.999
2912,0.687,0.216,1.022
2913,0.129,-0.399,1.011
2914,0.031,-0.302,1.007
2915,-0.014,-0.335,0.996
2916,-0.205,-0.255,0.984
2917,-0.573,0.036,0.973
2918,-0.654,0.096,1.019
2919,-0.628,0.405,1.040
2920,0.113,0.759,1.019
2921,0.219,0.384,1.001
2922,0.076,0.157,1.016
2923,0.049,0.305,1.017
2924,-0.070,0.130,1.021
2925,-0.231,0.043,1.017
2926,-0.054,0.075,0.998
2927,0.428,-0.117,0.993
2928,0.709,-0.103,1.011
2929,-0.069,-0.207,1.011
2930,-0.667,0.435,1.001
2931,0.041,-0.044,1.009
2932,0.223,-0.168,1.006
2933,0.202,0.056,1.001
2934,-0.082,0.242,0.986
2935,-0.305,0.565,1.011
2936,0.183,0.513,1.061
2937,0.663,-0.201,1.018
2938,-0.456,-0.867,0.984
2939,-0.015,-0.080,1.009
2940,-0.065,-0.690,1.012
2941,0.139,-0.850,1.021
2942,0.312,-0.544,1.025
2943,-0.237,-0.029,0.999
2944,-1.189,0.394,0.972
2945,-1.700,0.817,0.962
2946,-0.670,0.895,0.997
2947,1.088,0.214,1.038
2948,0.268,-0.093,1.016
2949,-0.006,-0.209,1.002
2950,0.112,-0.616,0.995
2951,0.094,-0.560,0.989
2952,-0.078,-0.651,1.017
2953,-0.787,-0.329,1.056
2954,-1.006,0.521,0.979
2955,0.159,1.228,0.992
2956,0.162,0.326,1.009
2957,0.240,0.610,1.022
2958,0.010,0.477,1.015
2959,-0.346,0.101,1.017
2960,-0.054,0.007,0.993
2961,0.971,-0.417,1.010
2962,1.375,-0.617,1.024
2963,-0.253,-0.660,1.002
2964,-1.030,0.311,0.999
2965,0.017,0.176,1.012
2966,0.259,0.083,1.010
2967,0.190,0.121,0.996
2968,-0.243,0.121,0.997
2969,-0.599,0.717,1.021
2970,0.052,0.281,1.048
2971,0.514,-0.336,0.998
2972,-0.122,-0.491,0.998
2973,0.001,-0.149,1.009
2974,0.030,-0.779,1.015
2975,0.101,-0.851,1.016
2976,0.104,-0.391,1.009
2977,-0.635,0.180,0.987
2978,-1.494,0.451,0.957
2979,-1.246,0.726,0.992
2980,0.232,0.668,1.023
2981,0.730,-0.063,1.028
2982,-0.081,0.135,1.006
2983,-0.059,-0.204,0.995
2984,0.062,-0.462,0.993
2985,0.040,-0.564,1.018
2986,-0.310,-0.537,1.070
2987,-0.629,0.300,0.977
2988,-0.395,0.737,0.992
2989,0.150,0.748,0.997
2990,0.172,0.483,1.019
2991,0.105,0.529,1.017
2992,-0.292,0.149,1.010
2993,-0.186,-0.070,0.993
2994,0.701,-0.478,1.000
2995,1.044,-0.579,1.028
2996,-0.126,-0.579,1.011
2997,-0.795,0.513,1.002
2998,-0.011,0.530,1.006
2999,0.011,0.302,0.999
3000,-0.116,0.269,0.998
3001,-0.200,0.617,1.013
3002,0.438,0.421,1.072
3003,0.667,-0.435,1.008
3004,0.121,-0.612,0.989
3005,-0.411,-0.522,0.997
3006,-0.056,-0.744,1.009
3007,0.140,-0.760,1.016
3008,0.210,-0.371,1.017
3009,-0.423,0.161,0.994
3010,-1.426,0.496,0.963
3011,-1.517,0.881,0.972
3012,-0.066,0.861,1.017
3013,1.010,0.105,1.037
3014,0.096,-0.127,1.010
3015,0.056,-0.383,0.999
3016,0.092,-0.517,0.991
3017,0.133,-0.380,1.009
3018,-0.178,-0.859,1.050
3019,-0.637,0.179,1.014
3020,-0.670,0.593,0.981
3021,0.136,0.909,0.990
3022,0.205,0.488,1.024
3023,0.211,0.613,1.015
3024,-0.200,0.086,1.017
3025,-0.191,0.002,0.997
3026,0.539,-0.379,1.003
3027,1.139,-0.665,1.018
3028,0.147,-0.768,1.010
3029,-0.966,0.164,0.998
3030,-0.050,0.208,1.011
3031,0.189,0.177,1.007
3032,0.071,0.122,0.998
3033,-0.434,0.282,0.996
3034,-0.604,1.007,1.018
3035,0.164,0.356,1.047
3036,0.646,-0.469,1.002
3037,-0.019,-0.523,1.000
3038,-0.014,-0.251,1.010
3039,-0.014,-0.896,1.013
3040,0.098,-0.811,1.014
3041,0.047,-0.246,1.008
3042,-0.807,0.312,0.982
3043,-1.601,0.671,0.957
3044,-1.046,0.827,0.996
3045,0.630,0.559,1.029
3046,0.535,-0.170,1.024
3047,-0.080,0.099,1.002
3048,0.006,-0.326,0.996
3049,0.076,-0.484,0.992
3050,0.054,-0.547,1.020
3051,-0.382,-0.583,1.065
3052,-0.669,0.356,0.974
3053,-0.318,0.878,0.994
3054,0.154,0.649,1.000
3055,0.170,0.501,1.017
3056,0.050,0.444,1.017
3057,-0.284,0.124,1.011
3058,-0.095,-0.052,0.995
3059,0.741,-0.372,1.003
3060,1.000,-0.535,1.027
3061,-0.185,-0.589,1.006
3062,-0.775,0.407,1.003
3063,0.042,0.333,1.009
3064,0.181,0.217,1.003
3065,0.024,0.137,0.995
3066,-0.366,0.357,1.007
3067,-0.090,0.656,1.069
3068,0.391,-0.312,1.000
3069,0.177,-0.404,0.989
3070,-0.119,-0.110,1.008
3071,0.015,-0.392,1.009
3072,0.082,-0.874,1.017
3073,0.251,-0.423,1.019
3074,-0.082,-0.106,0.999
3075,-1.013,0.295,0.969
3076,-1.419,0.556,0.970
3077,-0.571,0.564,1.015
3078,0.891,0.246,1.036
3079,0.157,-0.197,1.012
3080,-0.016,-0.041,1.002
3081,0.053,-0.408,0.991
3082,-0.035,-0.463,0.994
3083,-0.287,-0.212,1.021
3084,-0.781,-0.023,1.051
3085,-0.638,0.403,0.979
3086,0.265,0.814,1.000
3087,0.117,0.292,1.006
3088,0.150,0.500,1.017
3089,-0.037,0.260,1.013
3090,-0.244,0.093,1.007
3091,0.000,-0.147,0.995
3092,0.696,-0.417,1.002
3093,0.726,-0.324,1.025
3094,-0.338,-0.159,1.013
3095,-0.758,0.390,1.001
3096,-0.013,0.361,1.007
3097,0.103,0.336,1.001
3098,0.107,0.531,0.992
3099,0.075,0.379,1.014
3100,0.695,-0.036,1.102
3101,1.023,-0.552,0.994
3102,0.003,-0.817,0.993
3103,-1.006,0.183,0.989
3104,-0.004,-0.295,1.008
3105,0.107,-0.879,1.015
3106,0.378,-0.752,1.021
3107,0.181,-0.099,1.008
3108,-0.979,0.190,0.969
3109,-1.686,0.477,0.962
3110,-1.057,0.724,1.002
3111,0.642,0.394,1.037
3112,0.670,-0.193,1.021
3113,0.033,-0.204,1.004
3114,0.121,-0.467,0.995
3115,0.018,-0.671,0.996
3116,-0.277,-0.428,1.033
3117,-0.929,0.072,1.035
3118,-0.835,0.560,0.972
3119,-0.096,0.677,0.996
3120,0.401,0.428,1.013
3121,0.031,0.317,1.014
3122,-0.077,0.327,1.014
3123,-0.237,0.157,1.002
3124,0.002,0.059,0.996
3125,0.539,0.126,1.005
3126,0.738,0.161,1.027
3127,0.191,-0.103,1.025
3128,-0.659,-0.324,1.005
3129,0.033,-0.231,1.009
3130,0.261,-0.414,1.002
3131,0.228,-0.097,1.003
3132,-0.135,0.161,1.009
3133,-0.567,0.615,1.067
3134,-0.549,-0.055,0.971
3135,0.180,-0.097,0.996
3136,0.117,-0.041,1.007
3137,-0.005,-0.016,1.010
3138,0.143,-0.144,1.014
3139,0.301,-0.305,1.015
3140,0.155,-0.389,1.002
3141,-0.161,-0.479,0.983
3142,-0.498,-0.421,0.986
3143,-0.754,-0.226,1.001
3144,-0.407,0.450,1.028
3145,-0.161,0.726,1.005
3146,-0.105,0.307,1.007
3147,-0.112,0.149,0.997
3148,-0.023,-0.230,1.002
3149,-0.024,-0.406,1.043
3150,0.078,-0.432,1.037
3151,0.020,0.275,0.981
3152,-0.367,0.295,0.987
3153,-0.262,0.316,1.002
3154,-0.001,0.376,1.010
3155,0.071,0.502,1.013
3156,-0.029,0.125,1.009
3157,-0.076,0.314,0.997
3158,0.127,0.416,0.984
3159,0.721,0.105,1.015
3160,1.013,-0.051,1.046
3161,0.185,-0.503,1.028
3162,-0.882,-0.391,0.992
3163,0.116,-0.400,1.009
3164,0.331,-0.565,1.004
3165,0.346,-0.361,1.010
3166,-0.197,0.076,1.058
3167,-0.994,0.352,0.978
3168,-1.041,0.295,0.972
3169,-0.356,0.301,0.994
3170,0.584,-0.018,1.022
3171,0.179,-0.020,1.012
3172,0.036,-0.290,1.009
3173,0.167,-0.702,1.009
3174,0.149,-0.512,0.997
3175,-0.345,-0.357,0.974
3176,-1.151,0.147,0.966
3177,-1.346,0.356,1.011
3178,-0.606,0.542,1.021
3179,0.546,0.806,1.032
3180,0.325,0.046,1.015
3181,-0.102,0.379,1.006
3182,0.076,0.436,1.025
3183,-0.191,-0.428,1.022
3184,-0.060,-0.195,1.018
3185,0.326,0.190,0.994
3186,0.391,-0.092,0.998
3187,0.123,-0.116,1.007
3188,-0.544,-0.008,0.999
3189,-0.148,0.349,1.008
3190,0.039,-0.024,1.009
3191,0.126,0.025,1.006
3192,0.038,0.249,0.993
3193,-0.104,0.331,0.984
3194,0.008,0.578,1.018
3195,0.570,0.462,1.045
3196,0.433,-0.405,1.031
3197,-0.477,-0.710,0.992
3198,-0.029,-0.210,1.009
3199,0.010,-0.696,1.015
3200,0.126,-0.835,1.025
3201,0.242,-0.578,1.025
3202,-0.372,0.037,1.000
3203,-1.297,0.810,0.965
3204,-1.607,0.715,0.973
3205,-0.527,0.924,0.991
3206,1.288,0.194,1.037
3207,0.188,-0.218,1.016
3208,0.030,-0.253,1.003
3209,0.139,-0.537,0.998
3210,0.130,-0.469,0.992
3211,0.036,-0.579,1.010
3212,-0.499,-0.622,1.026
3213,-1.121,0.585,1.018
3214,0.128,1.175,0.989
3215,0.151,0.360,1.019
3216,0.202,0.477,1.016
3217,-0.020,0.255,1.017
3218,-0.294,-0.026,1.019
3219,0.004,0.003,1.000
3220,0.688,-0.361,1.003
3221,1.017,-0.418,1.012
3222,-0.331,-0.609,1.003
3223,-0.762,0.491,1.002
3224,-0.005,0.134,1.010
3225,0.275,-0.128,1.009
3226,0.230,0.069,1.003
3227,-0.142,0.199,0.987
3228,-0.539,0.504,1.012
3229,0.034,0.601,1.070
3230,0.536,-0.270,1.000
3231,-0.234,-0.700,0.990
3232,-0.020,-0.103,1.009
3233,0.006,-0.543,1.014
3234,0.111,-0.832,1.019
3235,0.106,-0.553,1.016
3236,-0.236,-0.000,0.996
3237,-1.092,0.426,0.976
3238,-1.516,0.726,0.962
3239,-0.506,0.774,1.007
3240,1.001,0.246,1.037
3241,0.139,-0.209,1.013
3242,-0.017,-0.183,1.001
3243,0.043,-0.445,0.993
3244,0.037,-0.498,0.990
3245,-0.181,-0.465,1.018
3246,-0.785,-0.108,1.059
3247,-0.800,0.468,0.977
3248,0.291,1.096,0.992
3249,0.106,0.233,1.016
3250,0.174,0.527,1.017
3251,-0.003,0.421,1.019
3252,-0.276,0.103,1.011
3253,-0.012,-0.065,0.993
3254,0.923,-0.342,1.006
3255,1.118,-0.685,1.026
3256,-0.393,-0.587,1.000
3257,-0.831,0.469,1.002
3258,0.051,0.243,1.011
3259,0.222,0.161,1.005
3260,0.061,0.172,0.994
3261,-0.334,0.305,1.005
3262,-0.201,0.702,1.058
3263,0.348,-0.242,1.016
3264,0.331,-0.361,0.990
3265,-0.230,-0.258,1.002
3266,-0.000,-0.347,1.008
3267,0.028,-0.976,1.016
3268,0.267,-0.564,1.020
3269,0.000,-0.183,1.003
3270,-0.994,0.287,0.973
3271,-1.640,0.623,0.956
3272,-0.920,0.746,1.006
3273,0.712,0.411,1.036
3274,0.603,-0.261,1.021
3275,0.000,-0.090,1.003
3276,0.090,-0.408,0.993
3277,0.043,-0.497,0.995
3278,-0.221,-0.360,1.021
3279,-0.783,-0.069,1.051
3280,-0.740,0.397,0.977
3281,0.117,0.705,0.999
3282,0.150,0.387,1.006
3283,0.158,0.493,1.019
3284,0.031,0.421,1.015
3285,-0.295,0.091,1.007
3286,-0.051,-0.226,0.993
3287,0.775,-0.560,1.001
3288,0.779,-0.376,1.026
3289,-0.386,-0.121,1.014
3290,-0.851,0.615,0.997
3291,-0.068,0.361,1.007
3292,0.051,0.416,0.999
3293,0.036,0.471,0.997
3294,0.143,0.402,1.017
3295,0.840,-0.159,1.096
3296,0.939,-0.684,0.991
3297,-0.081,-0.837,0.996
3298,-0.965,0.137,0.990
3299,-0.025,-0.358,1.006
3300,0.182,-0.858,1.017
3301,0.447,-0.391,1.021
3302,-0.122,0.100,1.000
3303,-1.200,0.244,0.958
3304,-1.505,0.541,0.978
3305,-0.560,0.552,1.012
3306,0.953,0.244,1.041
3307,0.312,-0.074,1.014
3308,0.072,-0.195,1.002
3309,0.159,-0.559,0.992
3310,-0.023,-0.629,1.002
3311,-0.419,-0.433,1.059
3312,-0.888,0.141,0.997
3313,-0.701,0.618,0.975
3314,0.091,0.595,1.003
3315,0.232,0.341,1.010
3316,0.011,0.327,1.014
3317,-0.094,0.352,1.013
3318,-0.249,0.108,1.000
3319,0.086,0.207,0.993
3320,0.563,0.312,1.008
3321,0.742,0.184,1.029
3322,0.127,-0.294,1.025
3323,-0.539,-0.356,1.002
3324,0.109,-0.322,1.008
3325,0.333,-0.473,1.001
3326,0.284,-0.205,1.004
3327,-0.187,0.089,1.014
3328,-0.832,0.659,1.057
3329,-0.691,0.115,0.969
3330,0.198,-0.046,0.997
3331,0.228,-0.232,1.009
3332,-0.002,0.008,1.009
3333,0.130,-0.106,1.013
3334,0.264,-0.390,1.014
3335,0.155,-0.436,1.001
3336,-0.080,-0.599,0.986
3337,-0.508,-0.471,0.984
3338,-0.896,-0.201,0.999
3339,-0.492,0.661,1.026
3340,-0.138,0.632,1.006
3341,-0.133,0.397,1.004
3342,-0.156,0.179,0.996
3343,-0.044,-0.196,1.002
3344,0.048,-0.463,1.046
3345,0.263,-0.453,1.039
3346,0.120,0.251,0.983
3347,-0.436,0.282,0.987
3348,-0.367,0.320,0.999
3349,0.004,0.348,1.010
3350,0.041,0.360,1.012
3351,-0.067,0.032,1.009
3352,-0.102,0.380,0.996
3353,0.074,0.508,0.984
3354,0.600,0.234,1.015
3355,0.865,0.017,1.043
3356,0.110,-0.580,1.024
3357,-0.594,-0.329,0.998
3358,0.209,-0.521,1.006
3359,0.374,-0.504,1.004
3360,0.305,-0.224,1.014
3361,-0.402,0.222,1.058
3362,-1.050,0.360,0.970
3363,-0.825,0.289,0.977
3364,0.025,0.117,1.004
3365,0.531,-0.105,1.018
3366,-0.005,-0.090,1.009
3367,0.079,-0.399,1.010
3368,0.220,-0.387,1.009
3369,0.114,-0.459,0.992
3370,-0.358,-0.355,0.976
3371,-0.888,-0.050,0.983
3372,-0.921,0.033,1.019
3373,-0.229,0.404,1.024
3374,0.116,0.765,1.015
3375,-0.081,0.287,1.010
3376,-0.233,0.348,0.996
3377,-0.150,0.111,1.019
3378,0.035,-0.487,1.041
3379,0.326,-0.116,1.012
3380,0.427,0.074,0.986
3381,0.053,-0.023,1.001
3382,-0.488,0.350,0.998
3383,-0.224,0.224,1.006
3384,0.009,0.073,1.009
3385,0.064,0.237,1.008
3386,0.046,0.155,0.998
3387,0.044,0.248,0.983
3388,0.300,0.200,1.009
3389,0.627,0.297,1.045
3390,0.402,0.039,1.034
3391,-0.621,-0.886,1.000
3392,-0.102,-0.043,1.009
3393,0.060,-0.367,1.012
3394,0.029,-0.802,1.016
3395,0.248,-0.708,1.030
3396,0.051,-0.385,1.021
3397,-0.722,0.407,0.976
3398,-1.550,0.692,0.962
3399,-1.219,0.774,0.984
3400,0.611,0.477,1.019
3401,0.682,-0.568,1.025
3402,0.006,-0.172,1.008
3403,0.002,-0.148,1.001
3404,-0.004,-0.379,0.991
3405,-0.101,-0.391,0.980
3406,-0.285,-0.308,1.013
3407,-0.761,-0.044,1.051
3408,-0.752,0.478,1.001
3409,0.255,0.973,0.991
3410,0.032,0.072,1.013
3411,0.172,0.474,1.023
3412,-0.025,0.321,1.015
3413,-0.372,-0.079,1.018
3414,-0.110,0.069,0.997
3415,0.519,-0.205,0.996
3416,0.950,-0.175,1.010
3417,-0.097,-0.404,1.014
3418,-0.862,0.669,1.002
3419,-0.003,0.088,1.010
3420,0.209,-0.047,1.007
3421,0.271,0.122,1.000
3422,0.030,0.166,0.990
3423,-0.166,0.412,1.015
3424,0.315,0.237,1.083
3425,0.609,-0.129,0.997
3426,-0.605,-0.793,0.980
3427,-0.036,-0.116,1.010
3428,0.040,-0.534,1.014
3429,0.091,-0.961,1.019
3430,0.291,-0.492,1.021
3431,-0.189,-0.068,0.997
3432,-1.196,0.404,0.974
3433,-1.677,0.715,0.958
3434,-0.639,0.775,1.007
3435,1.023,0.322,1.038
3436,0.311,-0.206,1.017
3437,0.013,-0.179,1.003
3438,0.124,-0.553,0.993
3439,0.047,-0.514,0.991
3440,-0.158,-0.623,1.023
3441,-0.771,-0.113,1.055
3442,-0.904,0.420,0.970
3443,0.117,1.091,0.994
3444,0.130,0.292,1.013
3445,0.181,0.600,1.017
3446,-0.116,0.281,1.016
3447,-0.323,0.150,1.006
3448,0.052,-0.180,0.996
3449,1.014,-0.330,1.006
3450,0.919,-0.745,1.029
3451,-0.687,-0.290,1.003
3452,-0.539,0.730,1.003
3453,0.092,0.331,1.008
3454,0.108,0.249,0.998
3455,-0.081,0.296,0.997
3456,-0.148,0.539,1.015
3457,0.420,0.017,1.074
3458,0.765,-0.203,1.000
3459,-0.352,-0.682,0.986
3460,-0.222,-0.108,1.004
3461,-0.003,-0.814,1.011
3462,0.169,-0.906,1.017
3463,0.297,-0.453,1.017
3464,-0.419,0.134,0.994
3465,-1.580,0.456,0.954
3466,-1.669,0.784,0.975
3467,-0.241,0.819,1.015
3468,1.199,-0.029,1.042
3469,0.193,-0.211,1.010
3470,0.079,-0.383,0.999
3471,0.100,-0.550,0.991
3472,-0.087,-0.529,1.004
3473,-0.569,-0.226,1.063
3474,-0.997,0.203,0.988
3475,-0.537,0.632,0.982
3476,0.447,0.729,1.006
3477,0.136,0.282,1.014
3478,0.172,0.619,1.017
3479,-0.199,0.215,1.012
3480,-0.316,0.076,0.997
3481,0.323,-0.409,0.996
3482,0.993,-0.537,1.017
3483,0.419,-0.428,1.025
3484,-0.912,0.165,1.002
3485,-0.260,0.766,1.002
3486,-0.036,0.440,1.003
3487,-0.028,0.439,0.998
3488,0.064,0.573,1.010
3489,0.495,0.276,1.062
3490,1.059,-0.530,1.038
3491,0.432,-0.932,0.989
3492,-0.477,-0.739,0.996
3493,-0.632,-0.481,0.995
3494,-0.229,-0.880,1.006
3495,0.245,-0.260,1.021
3496,-0.019,0.232,1.005
3497,-0.918,0.564,0.985
3498,-1.574,0.995,0.959
3499,-0.894,1.196,0.985
3500,0.602,0.741,1.018
3501,0.926,-0.047,1.038
3502,0.361,-0.578,1.010
3503,0.365,-0.450,1.013
3504,0.431,-0.836,0.996
3505,0.061,-1.149,1.026
3506,-0.845,-0.130,1.038
3507,-0.687,0.482,0.980
3508,-0.311,0.711,0.999
3509,0.043,0.666,1.003
3510,0.070,0.585,1.016
3511,-0.136,0.491,1.009
3512,-0.161,0.145,1.001
3513,0.353,-0.064,1.007
3514,0.907,-0.229,1.020
3515,0.491,-0.516,1.021
3516,-0.496,-0.463,1.000
3517,0.131,-0.279,1.010
3518,0.225,-0.053,1.007
3519,-0.062,0.055,0.998
3520,-0.805,0.499,0.989
3521,-0.860,1.260,1.019
3522,0.111,0.355,1.042
3523,0.784,-0.619,1.006
3524,-0.001,-0.433,1.002
3525,-0.073,-0.454,1.009
3526,-0.045,-0.707,1.014
3527,-0.008,-0.780,1.011
3528,-0.045,-0.233,1.005
3529,-0.743,0.346,0.986
3530,-1.493,0.689,0.962
3531,-1.058,0.889,0.992
3532,0.656,0.622,1.026
3533,0.480,-0.065,1.024
3534,-0.119,0.264,1.002
3535,-0.062,0.029,0.996
3536,0.120,-0.393,1.001
3537,0.400,-0.305,1.018
3538,0.419,-1.018,1.064
3539,-0.401,-0.113,1.007
3540,-0.816,0.756,0.976
3541,-0.020,0.582,0.995
3542,0.201,0.361,1.022
3543,0.275,0.505,1.017
3544,-0.113,0.092,1.016
3545,-0.207,-0.028,0.994
3546,0.317,-0.374,0.999
3547,0.680,-0.361,1.017
3548,0.033,-0.206,1.018
3549,-0.610,0.179,1.003
3550,0.035,0.217,1.009
3551,0.199,0.131,1.002
3552,0.080,0.211,0.993
3553,-0.103,0.408,1.005
3554,0.136,0.310,1.063
3555,0.633,-0.213,1.030
3556,-0.104,-0.372,0.975
3557,-0.394,-0.298,1.004
3558,0.050,-0.240,1.009
3559,0.026,-0.978,1.015
3560,0.287,-0.607,1.021
3561,0.102,-0.199,1.005
3562,-0.823,0.250,0.982
3563,-1.574,0.576,0.956
3564,-0.997,0.637,1.001
3565,0.703,0.456,1.036
3566,0.467,-0.318,1.019
3567,-0.023,-0.066,1.005
3568,0.066,-0.416,0.994
3569,0.063,-0.549,0.987
3570,-0.147,-0.510,1.012
3571,-0.714,-0.176,1.069
3572,-0.954,0.351,0.971
3573,-0.171,0.826,0.996
3574,0.300,0.486,1.000
3575,0.116,0.419,1.020
3576,0.022,0.442,1.015
3577,-0.316,0.080,1.010
3578,-0.170,-0.005,0.993
3579,0.614,-0.314,0.999
3580,0.971,-0.376,1.026
3581,0.042,-0.275,1.021
3582,-1.002,0.342,0.998
3583,-0.070,0.468,1.008
3584,0.093,0.279,1.002
3585,0.063,0.350,0.994
3586,0.002,0.425,1.009
3587,0.378,0.144,1.084
3588,0.905,-0.318,1.010
3589,0.258,-0.749,0.992
3590,-0.886,0.024,0.989
3591,-0.035,-0.296,1.006
3592,0.052,-0.936,1.014
3593,0.349,-0.748,1.022
3594,0.159,-0.046,1.007
3595,-1.020,0.295,0.968
3596,-1.778,0.613,0.956
3597,-1.040,0.850,1.003
3598,0.780,0.437,1.043
3599,0.762,-0.262,1.022
3600,0.039,-0.163,1.005
3601,0.149,-0.502,0.994
3602,0.037,-0.655,0.996
3603,-0.240,-0.542,1.028
3604,-0.877,0.000,1.037
3605,-0.862,0.520,0.971
3606,-0.262,0.675,0.993
3607,0.404,0.467,1.012
3608,0.055,0.305,1.014
3609,-0.012,0.501,1.015
3610,-0.230,0.210,1.004
3611,-0.039,0.029,0.996
3612,0.528,0.046,1.002
3613,0.809,0.107,1.025
3614,0.391,-0.166,1.027
3615,-0.695,-0.381,1.004
3616,-0.089,-0.155,1.009
3617,0.226,-0.442,1.002
3618,0.244,-0.141,1.003
3619,-0.082,0.159,1.006
3620,-0.624,0.689,1.065
3621,-0.621,0.181,0.979
3622,0.102,-0.148,0.993
3623,0.338,-0.087,1.009
3624,-0.017,-0.032,1.009
3625,0.095,-0.071,1.012
3626,0.282,-0.424,1.016
3627,0.236,-0.381,1.008
3628,-0.125,-0.396,0.982
3629,-0.501,-0.385,0.984
3630,-0.761,-0.222,0.997
3631,-0.503,0.212,1.023
3632,-0.125,0.860,1.011
3633,-0.062,0.233,1.013
3634,-0.141,0.234,0.996
3635,-0.022,-0.229,1.000
3636,-0.009,-0.335,1.020
3637,0.033,-0.663,1.062
3638,0.033,0.199,0.990
3639,-0.370,0.344,0.980
3640,-0.383,0.320,0.998
3641,0.013,0.470,1.010
3642,0.067,0.543,1.013
3643,-0.032,0.322,1.010
3644,-0.101,0.242,0.998
3645,0.149,0.380,0.988
3646,0.754,0.133,1.010
3647,1.166,-0.132,1.041
3648,0.492,-0.544,1.035
3649,-0.975,-0.552,0.990
3650,-0.159,-0.315,1.009
3651,0.320,-0.490,1.004
3652,0.341,-0.316,1.009
3653,-0.062,0.013,1.048
3654,-0.929,0.478,0.999
3655,-1.010,0.224,0.970
3656,-0.344,0.248,0.990
3657,0.500,-0.041,1.018
3658,0.185,-0.028,1.011
3659,0.040,-0.234,1.010
3660,0.191,-0.460,1.009
3661,0.177,-0.397,0.998
3662,-0.229,-0.405,0.978
3663,-0.808,-0.042,0.976
3664,-0.949,0.008,1.014
3665,-0.489,0.270,1.020
3666,0.187,0.873,1.024
3667,0.048,0.176,1.010
3668,-0.183,0.527,1.002
3669,-0.120,0.329,1.005
3670,0.024,-0.301,1.047
3671,0.189,-0.375,1.020
3672,0.512,-0.157,0.993
3673,0.393,-0.117,0.996
3674,-0.368,0.141,0.998
3675,-0.659,0.365,0.996
3676,-0.019,0.026,1.009
3677,0.035,0.040,1.010
3678,0.054,0.157,1.003
3679,-0.062,0.408,0.983
3680,-0.016,0.395,0.987
3681,0.386,0.477,1.034
3682,0.782,0.263,1.047
3683,-0.003,-0.721,1.017
3684,-0.408,-0.328,1.000
3685,-0.025,-0.330,1.009
3686,0.047,-0.734,1.017
3687,0.374,-0.616,1.034
3688,0.137,-0.359,1.023
3689,-0.485,0.288,0.984
3690,-1.303,0.536,0.971
3691,-1.335,0.685,0.978
3692,-0.057,0.626,1.002
3693,1.091,-0.111,1.037
3694,0.044,-0.303,1.009
3695,0.092,-0.372,1.002
3696,0.143,-0.650,0.993
3697,-0.037,-0.628,0.980
3698,-0.366,-0.478,1.009
3699,-0.956,0.007,1.034
3700,-1.266,0.622,1.000
3701,0.521,0.993,1.002
3702,0.097,0.208,1.016
3703,0.101,0.486,1.018
3704,-0.262,0.248,1.013
3705,-0.488,0.006,1.017
3706,0.012,0.158,0.993
3707,0.852,-0.206,1.005
3708,1.134,-0.197,1.016
3709,-0.458,-0.361,1.006
3710,-0.726,0.707,1.002
3711,0.021,0.049,1.010
3712,0.255,-0.068,1.008
3713,0.272,0.139,1.000
3714,-0.058,0.238,0.986
3715,-0.270,0.504,1.017
3716,0.347,0.209,1.081
3717,0.667,-0.137,0.995
3718,-0.548,-0.801,0.987
3719,-0.010,-0.112,1.008
3720,0.070,-0.560,1.014
3721,0.094,-0.993,1.020
3722,0.274,-0.468,1.020
3723,-0.258,-0.013,0.995
3724,-1.291,0.463,0.972
3725,-1.671,0.717,0.958
3726,-0.506,0.755,1.011
3727,1.138,0.284,1.039
3728,0.199,-0.177,1.014
3729,0.007,-0.097,1.003
3730,0.133,-0.537,0.993
3731,0.063,-0.464,0.993
3732,-0.036,-0.668,1.026
3733,-0.654,-0.234,1.055
3734,-0.880,0.369,0.970
3735,0.036,1.142,0.988
3736,0.120,0.307,1.017
3737,0.225,0.620,1.020
3738,-0.021,0.351,1.014
3739,-0.287,0.066,1.008
3740,0.069,-0.210,0.997
3741,1.007,-0.403,1.007
3742,0.911,-0.901,1.022
3743,-0.632,-0.414,0.998
3744,-0.582,0.375,1.007
3745,0.100,0.150,1.010
3746,0.126,0.243,1.004
3747,-0.227,0.226,0.997
3748,-0.616,0.803,0.996
3749,-0.037,0.863,1.071
3750,0.473,-0.351,1.001
3751,0.487,-0.557,0.999
3752,-0.202,-0.443,1.001
3753,-0.033,-0.748,1.010
3754,0.072,-0.871,1.014
3755,0.127,-0.490,1.014
3756,-0.374,0.126,0.995
3757,-1.402,0.537,0.964
3758,-1.622,0.868,0.967
3759,-0.214,0.912,1.015
3760,1.151,0.172,1.038
3761,0.071,0.054,1.010
3762,-0.038,0.004,1.001
3763,0.089,-0.429,0.997
3764,0.175,-0.250,1.009
3765,0.407,-0.881,1.040
3766,-0.255,-0.542,1.041
3767,-0.589,0.428,0.979
3768,-0.540,0.834,0.986
3769,0.101,0.418,1.011
3770,0.278,0.635,1.018
3771,0.021,0.251,1.016
3772,-0.235,0.020,1.003
3773,0.122,-0.324,0.997
3774,0.841,-0.665,1.007
3775,0.475,-0.591,1.021
3776,-0.873,-0.006,1.002
3777,-0.163,0.575,1.006
3778,0.056,0.419,1.004
3779,-0.007,0.326,0.995
3780,-0.195,0.417,1.003
3781,0.014,0.587,1.024
3782,0.689,-0.223,1.067
3783,0.677,-0.255,0.995
3784,-0.545,-0.644,0.990
3785,-0.096,-0.211,1.006
3786,0.064,-0.955,1.016
3787,0.317,-0.655,1.021
3788,0.142,-0.265,1.008
3789,-0.821,0.223,0.982
3790,-1.664,0.547,0.954
3791,-1.183,0.710,0.996
3792,0.550,0.573,1.031
3793,0.698,-0.264,1.024
3794,-0.019,-0.053,1.005
3795,0.073,-0.420,0.995
3796,0.074,-0.504,0.989
3797,-0.049,-0.538,1.016
3798,-0.539,-0.344,1.070
3799,-0.832,0.278,0.974
3800,-0.383,0.618,0.990
3801,0.196,0.719,0.997
3802,0.118,0.392,1.022
3803,0.074,0.532,1.015
3804,-0.321,0.145,1.009
3805,-0.196,-0.029,0.994
3806,0.653,-0.433,0.998
3807,1.005,-0.446,1.026
3808,-0.016,-0.325,1.018
3809,-0.972,0.511,0.997
3810,-0.079,0.462,1.007
3811,0.061,0.348,1.001
3812,0.011,0.383,0.996
3813,0.040,0.497,1.011
3814,0.537,0.046,1.087
3815,0.939,-0.446,1.001
3816,0.189,-0.842,0.996
3817,-0.872,-0.115,0.989
3818,-0.105,-0.307,1.005
3819,0.059,-0.970,1.015
3820,0.379,-0.524,1.022
3821,-0.001,0.101,1.003
3822,-1.178,0.380,0.966
3823,-1.718,0.683,0.959
3824,-0.783,0.860,1.005
3825,0.970,0.362,1.046
3826,0.624,-0.252,1.020
3827,0.073,-0.230,1.004
3828,0.156,-0.577,0.993
3829,0.032,-0.615,0.999
3830,-0.294,-0.562,1.037
3831,-0.883,0.066,1.024
3832,-0.834,0.535,0.972
3833,-0.104,0.676,0.999
3834,0.355,0.441,1.010
3835,0.068,0.426,1.015
3836,-0.103,0.357,1.012
3837,-0.278,0.164,1.002
3838,0.045,-0.105,0.996
3839,0.688,-0.165,1.006
3840,0.724,0.062,1.028
3841,0.004,-0.048,1.018
3842,-0.721,-0.145,1.004
3843,-0.019,-0.096,1.007
3844,0.131,-0.149,1.003
3845,0.101,0.188,0.996
3846,-0.129,0.343,1.010
3847,-0.158,0.342,1.076
3848,-0.002,-0.328,0.983
3849,0.156,-0.232,0.995
3850,-0.208,0.189,1.001
3851,0.032,-0.060,1.011
3852,0.159,-0.453,1.015
3853,0.295,-0.430,1.017
3854,0.073,-0.224,1.004
3855,-0.550,-0.087,0.967
3856,-0.880,-0.005,0.992
3857,-0.559,0.081,1.010
3858,0.134,0.418,1.031
3859,0.052,0.270,1.011
3860,-0.088,0.296,1.003
3861,0.017,-0.146,0.996
3862,0.053,-0.409,1.000
3863,-0.115,-0.575,1.043
3864,-0.289,-0.242,1.032
3865,-0.397,0.373,0.973
3866,-0.415,0.418,0.991
3867,0.095,0.646,1.007
3868,0.079,0.418,1.015
3869,0.087,0.706,1.014
3870,-0.184,0.067,1.005
3871,0.037,-0.325,0.995
3872,0.556,-0.119,0.999
3873,0.787,0.005,1.025
3874,0.275,-0.171,1.026
3875,-0.690,-0.319,1.006
3876,-0.314,-0.128,1.005
3877,0.132,-0.163,1.005
3878,0.162,-0.021,1.002
3879,-0.069,0.194,1.008
3880,-0.251,0.451,1.068
3881,-0.330,-0.253,0.977
3882,0.077,-0.195,0.994
3883,-0.085,0.005,1.003
3884,-0.024,0.213,1.008
3885,0.139,-0.136,1.014
3886,0.291,-0.228,1.015
3887,0.092,-0.270,1.001
3888,-0.224,-0.305,0.980
3889,-0.432,-0.310,0.991
3890,-0.478,-0.178,1.006
3891,-0.292,0.230,1.026
3892,-0.148,0.740,1.012
3893,-0.074,0.250,1.008
3894,-0.023,0.066,0.999
3895,0.038,-0.258,1.001
3896,-0.102,-0.496,1.051
3897,-0.113,-0.273,1.021
3898,-0.150,0.252,0.977
3899,-0.318,0.274,0.989
3900,-0.099,0.267,1.006
3901,-0.016,0.527,1.009
3902,0.060,0.546,1.013
3903,-0.038,0.254,1.009
3904,-0.032,0.421,0.995
3905,0.242,0.395,0.988
3906,0.944,-0.008,1.020
3907,1.177,-0.200,1.049
3908,0.186,-0.671,1.024
3909,-1.042,-0.388,0.988
3910,0.057,-0.430,1.008
3911,0.323,-0.609,1.004
3912,0.355,-0.384,1.013
3913,-0.368,0.035,1.051
3914,-1.171,0.343,0.978
3915,-1.171,0.513,0.972
3916,-0.487,0.480,0.989
3917,0.660,0.165,1.024
3918,0.439,-0.126,1.015
3919,0.032,-0.179,1.009
3920,0.206,-0.389,1.009
3921,0.179,-0.357,0.997
3922,-0.224,-0.348,0.979
3923,-0.738,-0.046,0.978
3924,-0.804,0.021,1.020
3925,-0.409,0.205,1.021
3926,0.204,0.804,1.024
3927,-0.018,0.167,1.010
3928,-0.094,0.385,1.005
3929,0.092,0.329,1.026
3930,-0.228,-0.518,1.019
3931,-0.057,-0.201,1.018
3932,0.266,0.190,0.990
3933,0.291,-0.072,0.995
3934,-0.008,0.072,1.004
3935,-0.494,0.169,1.003
3936,-0.077,0.139,1.009
3937,0.059,-0.181,1.008
3938,0.096,-0.074,1.004
3939,-0.048,0.209,0.989
3940,-0.279,0.584,0.982
3941,-0.232,0.639,1.020
3942,0.561,0.595,1.053
3943,0.472,-0.636,1.014
3944,-0.293,-0.426,1.002
3945,-0.011,-0.224,1.009
3946,0.055,-0.676,1.016
3947,0.131,-0.838,1.024
3948,0.096,-0.563,1.021
3949,-0.526,0.191,0.993
3950,-1.371,0.787,0.964
3951,-1.474,0.798,0.976
3952,-0.167,0.869,0.999
3953,1.237,-0.005,1.038
3954,0.047,-0.088,1.011
3955,0.032,-0.179,1.001
3956,0.149,-0.498,0.997
3957,0.178,-0.411,0.996
3958,0.103,-0.684,1.012
3959,-0.557,-0.580,1.038
3960,-0.908,0.741,1.005
3961,0.037,0.956,0.985
3962,0.174,0.374,1.021
3963,0.198,0.452,1.016
3964,-0.104,0.057,1.020
3965,-0.245,-0.093,1.013
3966,0.059,-0.039,0.991
3967,0.694,-0.288,1.003
3968,0.663,-0.365,1.016
3969,-0.793,-0.225,0.998
3970,-0.251,0.572,1.010
3971,0.101,-0.000,1.010
3972,0.275,-0.066,1.005
3973,0.158,0.056,0.996
3974,-0.224,0.351,0.993
3975,-0.259,0.481,1.027
3976,0.407,-0.008,1.062
3977,0.202,-0.267,0.984
3978,-0.303,-0.446,1.004
3979,-0.020,-0.328,1.007
3980,0.027,-0.808,1.015
3981,0.290,-0.645,1.025
3982,0.037,-0.239,1.009
3983,-0.686,0.196,0.985
3984,-1.499,0.590,0.961
3985,-1.206,0.752,0.981
3986,0.315,0.560,1.029
3987,0.878,-0.066,1.029
3988,0.004,-0.072,1.008
3989,0.079,-0.325,0.999
3990,0.123,-0.549,0.988
3991,-0.036,-0.512,1.003
3992,-0.373,-0.476,1.057
3993,-0.879,0.140,0.998
3994,-0.529,0.682,0.990
3995,0.235,0.744,0.991
3996,0.167,0.427,1.023
3997,0.205,0.660,1.017
3998,-0.260,0.027,1.015
3999,-0.237,0.022,0.997
4000,0.466,-0.347,1.001
4001,1.174,-0.635,1.015
4002,0.302,-0.866,1.012
4003,-1.057,0.164,1.000
4004,-0.134,0.507,1.007
4005,0.096,0.349,1.006
4006,-0.090,0.211,0.997
4007,-0.418,0.522,0.996
4008,-0.115,0.926,1.039
4009,0.501,-0.204,1.039
4010,0.696,-0.329,1.006
4011,-0.221,-0.753,0.994
4012,-0.249,-0.704,1.003
4013,0.041,-0.900,1.014
4014,0.250,-0.419,1.020
4015,-0.123,0.007,1.002
4016,-1.117,0.506,0.977
4017,-1.694,0.817,0.956
4018,-0.762,0.941,1.001
4019,0.885,0.530,1.033
4020,0.610,-0.197,1.025
4021,0.091,-0.311,1.005
4022,0.156,-0.560,0.994
4023,0.093,-0.462,0.999
4024,-0.075,-0.680,1.023
4025,-0.703,-0.208,1.049
4026,-0.809,0.329,0.976
4027,-0.081,0.889,0.997
4028,0.251,0.588,1.005
4029,0.150,0.528,1.017
4030,-0.136,0.213,1.016
4031,-0.317,0.130,1.003
4032,0.071,-0.137,0.996
4033,0.880,-0.284,1.007
4034,0.811,-0.514,1.029
4035,-0.728,-0.234,1.004
4036,-0.358,0.567,1.006
4037,0.107,0.305,1.008
4038,0.169,0.211,0.999
4039,-0.039,0.293,0.995
4040,-0.137,0.457,1.014
4041,0.361,0.000,1.078
4042,0.740,-0.209,0.998
4043,-0.407,-0.576,0.985
4044,-0.174,-0.035,1.006
4045,-0.003,-0.642,1.009
4046,0.176,-0.882,1.020
4047,0.360,-0.356,1.019
4048,-0.221,0.012,0.996
4049,-1.317,0.381,0.960
4050,-1.525,0.626,0.973
4051,-0.385,0.671,1.017
4052,1.141,0.014,1.040
4053,0.091,-0.227,1.009
4054,0.055,-0.253,1.000
4055,0.097,-0.504,0.989
4056,-0.048,-0.539,0.999
4057,-0.436,-0.263,1.048
4058,-1.004,0.119,1.011
4059,-0.659,0.574,0.978
4060,0.391,0.743,1.005
4061,0.106,0.250,1.012
4062,0.152,0.562,1.017
4063,-0.189,0.133,1.014
4064,-0.300,0.124,0.998
4065,0.140,-0.212,0.996
4066,0.828,-0.361,1.009
4067,0.589,-0.158,1.029
4068,-0.559,0.020,1.009
4069,-0.589,0.388,1.000
4070,0.019,0.213,1.007
4071,0.104,0.360,0.996
4072,0.056,0.453,0.996
4073,0.090,0.331,1.020
4074,0.760,-0.208,1.091
4075,0.821,-0.610,0.988
4076,-0.431,-0.493,0.988
4077,-0.579,0.231,0.996
4078,-0.000,-0.488,1.010
4079,0.169,-0.968,1.016
4080,0.455,-0.457,1.021
4081,-0.156,0.082,0.998
4082,-1.294,0.266,0.954
4083,-1.570,0.577,0.979
4084,-0.510,0.602,1.014
4085,1.080,0.173,1.042
4086,0.224,-0.134,1.012
4087,0.063,-0.161,1.002
4088,0.153,-0.575,0.993
4089,-0.021,-0.638,1.002
4090,-0.444,-0.452,1.061
4091,-0.892,0.157,0.994
4092,-0.733,0.619,0.973
4093,0.069,0.617,1.002
4094,0.244,0.341,1.011
4095,0.028,0.382,1.013
4096,-0.085,0.442,1.013
4097,-0.247,0.154,1.001
4098,0.122,0.151,0.994
4099,0.638,0.213,1.011
4100,0.837,0.074,1.029
4101,0.174,-0.333,1.023
4102,-0.696,-0.338,1.001
4103,0.083,-0.291,1.009
4104,0.309,-0.457,1.003
4105,0.257,-0.156,1.005
4106,-0.231,0.197,1.013
4107,-0.818,0.690,1.055
4108,-0.660,0.078,0.970
4109,0.241,-0.075,1.000
4110,0.282,-0.150,1.010
4111,-0.000,0.011,1.009
4112,0.168,-0.017,1.013
4113,0.304,-0.287,1.014
4114,0.158,-0.442,1.001
4115,-0.027,-0.608,0.989
4116,-0.352,-0.539,0.985
4117,-0.793,-0.275,0.998
4118,-0.620,0.497,1.024
4119,-0.164,0.709,1.007
4120,-0.102,0.362,1.008
4121,-0.098,0.163,0.996
4122,-0.003,-0.239,1.003
4123,0.039,-0.550,1.047
4124,0.165,-0.407,1.036
4125,0.013,0.218,0.982
4126,-0.476,0.251,0.986
4127,-0.302,0.282,1.001
4128,-0.007,0.413,1.010
4129,0.043,0.430,1.013
4130,-0.068,0.083,1.009
4131,-0.096,0.373,0.996
4132,0.084,0.434,0.984
4133,0.645,0.162,1.016
4134,0.931,0.036,1.046
4135,0.162,-0.486,1.027
4136,-0.754,-0.328,0.995
4137,0.157,-0.434,1.008
4138,0.361,-0.453,1.005
4139,0.318,-0.237,1.012
4140,-0.264,0.123,1.061
4141,-0.923,0.211,0.974
4142,-0.844,0.190,0.975
4143,-0.130,0.156,1.001
4144,0.442,-0.073,1.017
4145,0.016,0.059,1.008
4146,0.066,-0.219,1.009
4147,0.203,-0.353,1.009
4148,0.090,-0.301,0.991
4149,-0.264,-0.338,0.981
4150,-0.611,-0.170,0.987
4151,-0.681,-0.116,1.021
4152,-0.223,0.370,1.025
4153,-0.131,0.797,1.012
4154,-0.057,0.262,1.010
4155,-0.197,0.389,0.998
4156,-0.073,0.206,1.022
4157,0.020,-0.527,1.037
4158,0.294,-0.182,1.014
4159,0.447,0.013,0.987
4160,0.135,-0.052,1.000
4161,-0.507,0.292,0.998
4162,-0.327,0.164,1.005
4163,0.004,-0.049,1.009
4164,0.058,0.055,1.009
4165,0.041,0.046,0.999
4166,-0.116,0.266,0.981
4167,-0.121,0.484,0.996
4168,0.259,0.614,1.036
4169,0.739,0.472,1.054
4170,-0.388,-1.156,0.990
4171,-0.085,-0.094,1.009
4172,-0.053,-0.522,1.010
4173,0.047,-0.826,1.018
4174,0.236,-0.667,1.027
4175,0.008,-0.134,1.019
4176,-0.867,0.486,0.974
4177,-1.595,0.716,0.962
4178,-1.133,0.840,0.984
4179,0.700,0.563,1.023
4180,0.805,-0.248,1.029
4181,0.016,-0.124,1.006
4182,0.114,-0.381,1.000
4183,0.140,-0.529,0.991
4184,0.027,-0.743,0.990
4185,-0.290,-0.558,1.018
4186,-1.199,-0.055,1.035
4187,-0.527,1.118,0.996
4188,0.309,0.647,0.998
4189,0.189,0.460,1.019
4190,0.073,0.430,1.017
4191,-0.405,-0.002,1.016
4192,-0.283,0.109,1.011
4193,0.237,-0.013,0.991
4194,1.045,-0.241,1.012
4195,0.751,-0.313,1.021
4196,-1.079,0.015,0.995
4197,-0.141,0.469,1.011
4198,0.118,-0.122,1.009
4199,0.384,-0.216,1.006
4200,0.201,0.003,0.995
4201,-0.345,0.180,0.991
4202,-0.581,0.642,1.029
4203,0.126,0.050,1.045
4204,0.316,-0.376,0.990
4205,-0.093,-0.199,1.008
4206,0.002,-0.303,1.010
4207,0.006,-0.752,1.015
4208,0.046,-0.743,1.017
4209,-0.025,-0.241,1.009
4210,-0.591,0.250,0.988
4211,-1.374,0.660,0.965
4212,-1.257,0.886,0.977
4213,0.237,0.750,1.026
4214,0.991,0.014,1.033
4215,0.011,-0.056,1.009
4216,0.077,-0.234,1.001
4217,0.142,-0.545,0.991
4218,0.089,-0.411,1.006
4219,-0.126,-0.774,1.051
4220,-0.645,0.082,1.016
4221,-0.710,0.532,0.981
4222,0.125,0.860,0.988
4223,0.168,0.418,1.023
4224,0.239,0.653,1.019
4225,-0.176,0.071,1.016
4226,-0.192,-0.002,0.998
4227,0.478,-0.391,1.003
4228,1.096,-0.725,1.015
4229,0.160,-0.795,1.010
4230,-0.986,0.151,0.998
4231,-0.054,0.153,1.011
4232,0.147,0.337,1.007
4233,-0.081,0.203,0.999
4234,-0.546,0.665,0.985
4235,-0.345,1.105,1.030
4236,0.386,0.057,1.048
4237,0.829,-0.387,1.012
4238,-0.031,-0.739,0.995
4239,-0.224,-0.618,1.002
4240,-0.075,-1.022,1.009
4241,0.209,-0.665,1.019
4242,0.002,-0.090,1.008
4243,-0.970,0.449,0.981
4244,-1.789,0.788,0.957
4245,-1.158,1.063,0.985
4246,0.749,0.664,1.026
4247,0.815,-0.002,1.033
4248,-0.029,0.172,1.007
4249,0.059,-0.382,1.000
4250,0.145,-0.274,1.006
4251,0.549,-0.671,1.010
4252,0.307,-1.035,1.068
4253,-0.511,-0.066,0.997
4254,-0.845,0.722,0.974
4255,-0.204,0.640,1.000
4256,0.204,0.492,1.019
4257,0.231,0.532,1.016
4258,-0.176,-0.051,1.013
4259,-0.102,-0.134,0.994
4260,0.514,-0.528,0.999
4261,0.710,-0.549,1.020
4262,-0.249,-0.397,1.013
4263,-0.683,0.348,1.002
4264,0.038,0.455,1.007
4265,0.062,0.347,1.001
4266,-0.092,0.324,0.994
4267,-0.214,0.508,1.012
4268,0.303,0.340,1.073
4269,0.779,-0.278,1.014
4270,-0.004,-0.412,0.982
4271,-0.363,-0.272,1.002
4272,0.022,-0.526,1.010
4273,0.019,-1.107,1.017
4274,0.365,-0.413,1.024
4275,-0.137,-0.018,0.998
4276,-1.256,0.428,0.967
4277,-1.708,0.714,0.958
4278,-0.582,0.771,1.013
4279,1.241,0.145,1.042
4280,0.156,-0.264,1.012
4281,-0.017,-0.065,1.003
4282,0.100,-0.517,0.991
4283,0.045,-0.552,0.992
4284,-0.186,-0.470,1.023
4285,-0.766,-0.032,1.053
4286,-0.872,0.368,0.972
4287,0.097,0.855,1.002
4288,0.133,0.346,1.003
4289,0.152,0.524,1.020
4290,-0.068,0.296,1.013
4291,-0.319,0.086,1.007
4292,-0.034,-0.112,0.994
4293,0.759,-0.375,1.003
4294,0.839,-0.453,1.026
4295,-0.384,-0.211,1.013
4296,-0.726,0.586,0.998
4297,-0.029,0.461,1.007
4298,0.079,0.353,0.999
4299,0.012,0.418,0.995
4300,0.082,0.419,1.016
4301,0.698,-0.046,1.093
4302,0.959,-0.473,0.996
4303,-0.025,-0.784,0.994
4304,-0.868,-0.160,0.992
4305,-0.105,-0.503,1.006
4306,0.041,-0.951,1.014
4307,0.340,-0.414,1.022
4308,-0.135,0.199,0.999
4309,-1.286,0.534,0.967
4310,-1.748,0.874,0.956
4311,-0.594,0.930,1.007
4312,1.041,0.310,1.045
4313,0.712,-0.225,1.022
4314,0.137,-0.355,1.005
4315,0.139,-0.592,0.992
4316,0.155,-0.447,1.004
4317,-0.192,-0.687,1.040
4318,-0.747,-0.016,1.023
4319,-0.774,0.460,0.974
4320,-0.135,0.569,0.998
4321,0.186,0.407,1.009
4322,0.137,0.528,1.016
4323,-0.134,0.224,1.013
4324,-0.294,0.111,1.000
4325,0.106,-0.240,0.995
4326,0.766,-0.305,1.008
4327,0.580,-0.020,1.029
4328,-0.380,0.092,1.012
4329,-0.700,0.181,1.002
4330,0.016,-0.032,1.008
4331,0.096,0.131,1.001
4332,0.078,0.356,0.993
4333,-0.034,0.346,1.013
4334,0.250,-0.102,1.083
4335,0.560,-0.348,0.991
4336,-0.106,-0.298,0.989
4337,-0.491,0.202,0.997
4338,0.034,-0.170,1.008
4339,0.249,-0.527,1.018
4340,0.383,-0.355,1.018
4341,0.004,-0.163,1.002
4342,-0.720,0.001,0.964
4343,-0.945,0.080,0.994
4344,-0.420,0.058,1.013
4345,0.279,0.402,1.030
4346,0.048,0.136,1.011
4347,-0.053,0.312,1.003
4348,0.110,-0.336,0.995
4349,0.085,-0.586,1.000
4350,-0.160,-0.653,1.048
4351,-0.488,-0.102,1.025
4352,-0.587,0.519,0.969
4353,-0.395,0.445,0.993
4354,0.184,0.498,1.010
4355,0.080,0.426,1.014
4356,0.003,0.529,1.014
4357,-0.229,0.052,1.003
4358,0.045,-0.288,0.993
4359,0.539,-0.040,1.001
4360,0.682,0.081,1.025
4361,0.114,-0.011,1.025
4362,-0.669,-0.219,1.006
4363,-0.148,-0.205,1.007
4364,0.147,-0.213,1.004
4365,0.136,0.080,1.002
4366,-0.067,0.260,1.010
4367,-0.209,0.301,1.068
4368,-0.206,-0.321,0.981
4369,0.117,-0.148,0.995
4370,-0.226,0.166,1.000
4371,-0.007,0.049,1.009
4372,0.169,-0.091,1.016
4373,0.309,-0.221,1.014
4374,0.090,-0.267,1.000
4375,-0.208,-0.299,0.982
4376,-0.354,-0.333,0.993
4377,-0.435,-0.269,1.007
4378,-0.379,0.301,1.025
4379,-0.136,0.657,1.011
4380,-0.058,0.247,1.008
4381,0.017,0.021,1.001
4382,0.078,-0.294,1.002
4383,-0.121,-0.605,1.055
4384,-0.154,-0.229,1.015
4385,-0.234,0.278,0.976
4386,-0.377,0.308,0.989
4387,-0.055,0.254,1.007
4388,-0.013,0.468,1.009
4389,0.037,0.489,1.012
4390,-0.064,0.243,1.007
4391,-0.058,0.505,0.994
4392,0.215,0.382,0.985
4393,0.908,0.064,1.021
4394,1.136,-0.118,1.051
4395,0.139,-0.662,1.023
4396,-0.941,-0.336,0.992
4397,0.112,-0.458,1.008
4398,0.346,-0.562,1.005
4399,0.321,-0.264,1.014
4400,-0.403,0.208,1.053
4401,-1.023,0.283,0.975
4402,-0.975,0.331,0.973
4403,-0.233,0.276,0.997
4404,0.636,0.013,1.021
4405,0.126,-0.039,1.011
4406,0.054,-0.277,1.009
4407,0.225,-0.549,1.009
4408,0.121,-0.350,0.994
4409,-0.384,-0.280,0.976
4410,-0.966,0.107,0.980
4411,-0.921,0.162,1.021
4412,-0.358,0.358,1.020
4413,0.458,0.737,1.027
4414,0.014,0.113,1.010
4415,-0.089,0.449,1.004
4416,0.080,0.171,1.030
4417,-0.178,-0.509,1.019
4418,0.052,-0.104,1.015
4419,0.297,0.085,0.987
4420,0.265,-0.097,0.998
4421,-0.169,0.080,1.003
4422,-0.489,0.252,1.003
4423,-0.022,0.048,1.009
4424,0.062,-0.027,1.009
4425,0.105,-0.043,1.003
4426,-0.048,0.214,0.987
4427,-0.207,0.536,0.988
4428,0.014,0.609,1.030
4429,0.779,0.489,1.064
4430,-0.025,-0.945,0.992
4431,-0.249,-0.253,1.005
4432,0.000,-0.375,1.010
4433,0.010,-0.798,1.015
4434,0.210,-0.736,1.026
4435,0.024,-0.466,1.017
4436,-0.711,0.301,0.986
4437,-1.510,0.740,0.965
4438,-1.372,0.824,0.981
4439,0.133,0.818,1.006
4440,1.107,-0.020,1.035
4441,0.007,-0.152,1.010
4442,0.002,-0.210,0.999
4443,0.118,-0.460,0.995
4444,0.137,-0.567,0.991
4445,-0.008,-0.641,1.023
4446,-0.869,-0.263,1.040
4447,-0.614,1.032,0.993
4448,0.146,0.667,0.996
4449,0.215,0.467,1.020
4450,0.182,0.499,1.016
4451,-0.196,0.095,1.018
4452,-0.283,-0.080,1.013
4453,0.218,-0.089,0.992
4454,0.965,-0.407,1.008
4455,0.721,-0.526,1.016
4456,-1.099,-0.124,0.993
4457,-0.182,0.468,1.011
4458,0.102,-0.070,1.009
4459,0.298,-0.068,1.009
4460,0.126,0.106,0.995
4461,-0.393,0.253,0.990
4462,-0.561,0.703,1.023
4463,0.216,0.180,1.051
4464,0.451,-0.382,0.996
4465,-0.139,-0.337,1.003
4466,-0.023,-0.337,1.009
4467,0.002,-0.748,1.015
4468,0.106,-0.699,1.020
4469,-0.024,-0.246,1.009
4470,-0.597,0.266,0.987
4471,-1.361,0.633,0.968
4472,-1.232,0.854,0.976
4473,0.207,0.682,1.025
4474,0.979,0.067,1.032
4475,0.008,-0.006,1.009
4476,0.064,-0.165,1.002
4477,0.155,-0.539,0.992
4478,0.126,-0.395,1.001
4479,0.054,-0.762,1.042
4480,-0.580,-0.099,1.036
4481,-0.834,0.443,0.973
4482,0.075,0.924,0.986
4483,0.157,0.363,1.026
4484,0.307,0.705,1.024
4485,-0.064,0.147,1.015
4486,-0.200,-0.083,1.003
4487,0.375,-0.392,1.001
4488,1.089,-0.675,1.009
4489,0.388,-0.869,1.013
4490,-1.043,-0.041,0.997
4491,-0.255,0.281,1.006
4492,0.146,0.210,1.007
4493,0.025,0.205,1.000
4494,-0.410,0.392,0.995
4495,-0.529,0.969,1.010
4496,0.184,0.467,1.059
4497,0.672,-0.371,1.008
4498,0.133,-0.593,0.994
4499,-0.127,-0.305,1.007
4500,-0.041,-0.947,1.012
4501,0.221,-0.761,1.019
4502,0.158,-0.273,1.011
4503,-0.667,0.239,0.988
4504,-1.608,0.550,0.954
4505,-1.332,0.756,0.987
4506,0.273,0.671,1.027
4507,0.941,-0.180,1.033
4508,-0.017,-0.022,1.007
4509,0.028,-0.253,0.998
4510,0.077,-0.463,0.990
4511,-0.024,-0.552,1.010
4512,-0.407,-0.392,1.074
4513,-0.757,0.186,0.981
4514,-0.494,0.546,0.982
4515,0.234,0.837,0.996
4516,0.093,0.284,1.022
4517,0.135,0.582,1.015
4518,-0.269,0.114,1.012
4519,-0.261,0.024,0.996
4520,0.445,-0.375,0.996
4521,0.967,-0.416,1.021
4522,0.275,-0.287,1.024
4523,-1.015,0.187,0.999
4524,-0.163,0.592,1.004
4525,0.054,0.335,1.003
4526,0.040,0.400,0.995
4527,0.052,0.510,1.009
4528,0.402,0.212,1.071
4529,0.991,-0.433,1.030
4530,0.510,-0.818,0.991
4531,-0.807,-0.343,0.990
4532,-0.341,0.015,1.000
4533,0.002,-0.901,1.012
4534,0.314,-0.778,1.021
4535,0.285,-0.071,1.012
4536,-0.806,0.259,0.978
4537,-1.692,0.557,0.953
4538,-1.257,0.783,0.996
4539,0.438,0.604,1.035
4540,1.027,-0.160,1.030
4541,0.037,-0.125,1.007
4542,0.140,-0.375,0.998
4543,0.097,-0.518,0.994
4544,-0.043,-0.638,1.017
4545,-0.570,-0.282,1.059
4546,-0.760,0.310,0.972
4547,-0.542,0.488,0.982
4548,0.239,0.577,1.010
4549,0.058,0.356,1.011
4550,-0.008,0.422,1.014
4551,-0.218,0.229,1.005
4552,-0.151,0.120,0.996
4553,0.397,0.136,0.998
4554,0.758,0.182,1.023
4555,0.512,-0.022,1.029
4556,-0.587,-0.385,1.008
4557,-0.122,-0.104,1.009
4558,0.208,-0.485,1.004
4559,0.327,-0.287,1.001
4560,0.064,0.013,1.005
4561,-0.559,0.508,1.053
4562,-0.752,0.323,0.998
4563,-0.160,-0.080,0.985
4564,0.411,-0.066,1.008
4565,-0.024,-0.053,1.008
4566,0.047,0.042,1.011
4567,0.276,-0.175,1.016
4568,0.279,-0.389,1.010
4569,0.035,-0.437,0.990
4570,-0.194,-0.561,0.984
4571,-0.523,-0.380,0.994
4572,-0.820,-0.080,1.011
4573,-0.309,1.007,1.019
4574,-0.033,0.168,1.011
4575,-0.122,0.378,0.999
4576,-0.011,-0.109,0.998
4577,0.034,-0.315,1.010
4578,0.024,-0.780,1.065
4579,0.086,0.021,1.001
4580,-0.270,0.287,0.976
4581,-0.531,0.261,0.992
4582,-0.040,0.467,1.009
4583,0.020,0.302,1.011
4584,0.010,0.364,1.010
4585,-0.121,0.156,1.005
4586,-0.047,0.390,0.987
4587,0.333,0.268,0.994
4588,0.887,0.113,1.031
4589,0.692,-0.061,1.046
4590,-0.535,-0.634,1.000
4591,-0.312,-0.167,1.007
4592,0.283,-0.521,1.005
4593,0.360,-0.365,1.006
4594,0.202,-0.135,1.029
4595,-0.629,0.294,1.035
4596,-0.932,0.074,0.968
4597,-0.573,0.197,0.982
4598,0.155,0.020,1.012
4599,0.265,0.058,1.013
4600,0.005,-0.041,1.009
4601,0.135,-0.361,1.010
4602,0.193,-0.323,1.004
4603,-0.086,-0.345,0.983
4604,-0.524,-0.186,0.978
4605,-0.708,-0.077,1.008
4606,-0.564,0.081,1.022
4607,-0.005,0.768,1.025
4608,-0.030,0.306,1.010
4609,-0.136,0.426,1.005
4610,-0.130,0.375,1.001
4611,0.032,-0.147,1.045
4612,0.083,-0.357,1.021
4613,0.423,-0.106,1.000
4614,0.448,-0.082,0.994
4615,-0.070,-0.058,1.002
4616,-0.730,0.207,0.996
4617,-0.092,0.203,1.008
4618,0.029,-0.093,1.010
4619,0.077,0.082,1.006
4620,-0.016,0.083,0.991
4621,-0.182,0.380,0.983
4622,-0.065,0.699,1.016
4623,0.480,0.619,1.040
4624,0.541,-0.368,1.037
4625,-0.427,-0.720,0.993
4626,-0.044,-0.200,1.008
4627,-0.033,-0.708,1.012
4628,0.190,-0.778,1.026
4629,0.208,-0.507,1.025
4630,-0.342,0.015,0.999
4631,-1.199,0.634,0.968
4632,-1.569,0.691,0.973
4633,-0.662,0.899,0.990
4634,1.240,0.250,1.037
4635,0.259,-0.253,1.017
4636,0.014,-0.198,1.003
4637,0.098,-0.410,0.997
4638,0.115,-0.576,0.987
4639,-0.018,-0.666,1.008
4640,-0.497,-0.488,1.022
4641,-1.285,0.465,1.021
4642,0.115,1.255,0.992
4643,0.160,0.287,1.015
4644,0.188,0.520,1.019
4645,-0.090,0.277,1.012
4646,-0.438,-0.001,1.019
4647,-0.132,0.093,0.999
4648,0.628,-0.195,1.000
4649,1.149,-0.216,1.013
4650,-0.010,-0.450,1.014
4651,-0.915,0.509,0.998
4652,-0.047,0.193,1.010
4653,0.244,-0.242,1.009
4654,0.360,-0.076,1.005
4655,0.002,0.086,0.988
4656,-0.562,0.380,1.004
4657,-0.293,0.640,1.066
4658,0.400,-0.224,1.003
4659,0.019,-0.509,0.990
4660,-0.019,-0.048,1.009
4661,0.038,-0.453,1.012
4662,0.050,-0.819,1.017
4663,0.084,-0.605,1.016
4664,-0.156,-0.046,1.001
4665,-0.928,0.441,0.980
4666,-1.454,0.681,0.960
4667,-0.714,0.719,1.002
4668,0.841,0.500,1.037
4669,0.379,-0.168,1.018
4670,-0.015,0.083,1.006
4671,0.111,-0.361,0.997
4672,0.108,-0.519,0.992
4673,0.107,-0.556,1.016
4674,-0.368,-0.670,1.065
4675,-0.733,0.291,0.977
4676,-0.375,0.981,0.996
4677,0.109,0.448,0.997
4678,0.219,0.548,1.021
4679,0.173,0.568,1.015
4680,-0.268,-0.039,1.015
4681,-0.089,-0.121,0.995
4682,0.735,-0.459,1.005
4683,1.034,-0.840,1.018
4684,-0.273,-0.659,1.002
4685,-0.845,0.313,1.002
4686,0.028,0.208,1.011
4687,0.102,0.325,1.005
4688,-0.208,0.292,0.998
4689,-0.555,0.814,0.987
4690,-0.111,0.964,1.057
4691,0.499,-0.305,1.025
4692,0.816,-0.315,1.007
4693,-0.244,-0.756,0.996
4694,-0.217,-0.738,1.004
4695,0.018,-0.985,1.013
4696,0.288,-0.396,1.022
4697,-0.164,0.060,1.000
4698,-1.236,0.526,0.972
4699,-1.787,0.829,0.954
4700,-0.722,0.929,1.004
4701,0.970,0.477,1.036
4702,0.620,-0.118,1.023
4703,0.077,-0.214,1.004
4704,0.157,-0.570,0.994
4705,0.113,-0.426,1.001
4706,0.014,-0.752,1.030
4707,-0.589,-0.253,1.047
4708,-0.793,0.317,0.970
4709,-0.203,0.711,0.997
4710,0.179,0.671,1.004
4711,0.186,0.566,1.018
4712,-0.136,0.225,1.016
4713,-0.333,0.124,1.000
4714,0.103,-0.179,0.995
4715,0.905,-0.356,1.009
4716,0.760,-0.407,1.029
4717,-0.670,-0.114,1.006
4718,-0.480,0.529,1.002
4719,0.026,0.263,1.008
4720,0.127,0.298,0.997
4721,-0.022,0.359,0.996
4722,-0.005,0.466,1.020
4723,0.521,-0.192,1.080
4724,0.766,-0.419,0.990
4725,-0.406,-0.459,0.989
4726,-0.327,0.115,0.999
4727,-0.048,-0.664,1.009
4728,0.147,-1.007,1.017
4729,0.422,-0.347,1.022
4730,-0.282,0.200,0.995
4731,-1.472,0.401,0.951
4732,-1.664,0.733,0.975
4733,-0.297,0.795,1.018
4734,1.291,0.013,1.045
4735,0.206,-0.197,1.011
4736,0.100,-0.272,1.001
4737,0.143,-0.609,0.992
4738,-0.027,-0.644,1.003
4739,-0.511,-0.343,1.068
4740,-0.948,0.228,0.982
4741,-0.766,0.559,0.976
4742,0.176,0.569,1.005
4743,0.256,0.370,1.013
4744,0.052,0.439,1.014
4745,-0.093,0.406,1.012
4746,-0.246,0.081,1.000
4747,0.166,-0.024,0.993
4748,0.649,0.138,1.011
4749,0.730,0.079,1.029
4750,-0.020,-0.213,1.022
4751,-0.642,-0.310,1.002
4752,0.094,-0.346,1.008
4753,0.250,-0.344,1.002
4754,0.140,0.033,1.002
4755,-0.316,0.470,1.017
4756,-0.628,0.526,1.047
4757,-0.375,-0.139,0.978
4758,0.376,-0.163,1.004
4759,0.066,0.076,1.007
4760,0.009,0.013,1.010
4761,0.243,0.037,1.015
4762,0.344,-0.320,1.014
4763,0.123,-0.414,0.996
4764,-0.113,-0.547,0.987
4765,-0.364,-0.504,0.991
4766,-0.721,-0.315,1.003
4767,-0.484,0.735,1.026
4768,-0.106,0.431,1.006
4769,-0.086,0.333,1.006
4770,-0.006,0.006,0.998
4771,0.055,-0.291,1.003
4772,-0.055,-0.666,1.057
4773,-0.024,-0.208,1.019
4774,-0.201,0.277,0.976
4775,-0.465,0.263,0.990
4776,-0.078,0.321,1.007
4777,0.000,0.469,1.010
4778,0.058,0.573,1.013
4779,-0.108,0.093,1.007
4780,-0.052,0.334,0.992
4781,0.273,0.319,0.990
4782,0.873,0.076,1.023
4783,0.912,-0.079,1.046
4784,-0.150,-0.646,1.015
4785,-0.738,-0.246,0.997
4786,0.206,-0.504,1.006
4787,0.362,-0.383,1.005
4788,0.245,-0.139,1.016
4789,-0.494,0.298,1.055
4790,-0.953,0.132,0.969
4791,-0.664,0.188,0.977
4792,0.083,0.065,1.007
4793,0.357,-0.062,1.015
4794,-0.011,0.088,1.009
4795,0.100,-0.305,1.010
4796,0.226,-0.329,1.008
4797,0.012,-0.296,0.986
4798,-0.415,-0.241,0.978
4799,-0.653,-0.121,0.996
4800,-0.585,-0.058,1.022
4801,-0.083,0.692,1.028
4802,-0.082,0.408,1.008
4803,-0.098,0.390,1.007
4804,-0.163,0.208,0.998
4805,-0.052,-0.073,1.040
4806,0.043,-0.413,1.025
4807,0.295,-0.017,1.002
4808,0.290,0.038,0.988
4809,-0.084,0.048,1.000
4810,-0.500,0.442,0.999
4811,-0.093,-0.042,1.009
4812,0.019,-0.044,1.009
4813,0.058,0.078,1.006
4814,-0.009,0.105,0.994
4815,-0.136,0.347,0.981
4816,-0.023,0.609,1.009
4817,0.450,0.590,1.040
4818,0.503,0.018,1.040
4819,-0.364,-0.999,0.994
4820,-0.039,-0.122,1.009
4821,-0.024,-0.637,1.013
4822,0.217,-0.735,1.025
4823,0.295,-0.461,1.029
4824,-0.196,0.008,1.007
4825,-0.995,0.352,0.970
4826,-1.503,0.631,0.970
4827,-0.846,0.792,0.987
4828,0.944,0.335,1.034
4829,0.440,-0.312,1.019
4830,0.037,-0.201,1.005
4831,0.116,-0.422,0.998
4832,0.091,-0.541,0.989
4833,-0.101,-0.676,0.996
4834,-0.465,-0.329,1.018
4835,-1.322,0.183,1.028
4836,-0.149,1.213,1.003
4837,0.261,0.313,1.003
4838,0.197,0.492,1.020
4839,0.033,0.456,1.016
4840,-0.546,-0.090,1.016
4841,-0.230,0.075,1.006
4842,0.487,-0.112,0.995
4843,1.171,-0.260,1.013
4844,0.383,-0.405,1.017
4845,-1.177,0.329,0.996
4846,-0.112,0.428,1.009
4847,0.156,-0.148,1.009
4848,0.335,-0.031,1.006
4849,0.107,0.090,0.992
4850,-0.365,0.337,0.999
4851,-0.248,0.595,1.051
4852,0.469,-0.142,1.035
4853,0.077,-0.428,0.982
4854,-0.129,-0.194,1.009
4855,0.000,-0.386,1.010
4856,0.105,-0.773,1.018
4857,0.212,-0.642,1.020
4858,-0.048,-0.156,1.005
4859,-0.787,0.304,0.984
4860,-1.460,0.599,0.960
4861,-0.956,0.686,0.993
4862,0.499,0.505,1.032
4863,0.676,-0.144,1.024
4864,-0.006,0.049,1.008
4865,0.101,-0.273,0.998
4866,0.130,-0.553,0.988
4867,0.060,-0.501,1.009
4868,-0.326,-0.662,1.063
4869,-0.773,0.220,0.991
4870,-0.518,0.757,0.992
4871,0.137,0.601,0.991
4872,0.186,0.470,1.023
4873,0.245,0.693,1.017
4874,-0.234,0.007,1.016
4875,-0.171,-0.051,0.998
4876,0.583,-0.473,1.003
4877,1.147,-0.825,1.014
4878,0.071,-0.788,1.007
4879,-1.046,0.206,1.000
4880,-0.117,0.386,1.009
4881,0.087,0.389,1.005
4882,-0.122,0.243,0.998
4883,-0.463,0.604,0.991
4884,-0.150,0.966,1.035
4885,0.528,-0.154,1.046
4886,0.741,-0.336,1.011
4887,-0.179,-0.715,0.994
4888,-0.288,-0.732,1.002
4889,-0.136,-1.097,1.007
4890,0.197,-0.581,1.021
4891,-0.054,0.073,1.005
4892,-1.029,0.538,0.979
4893,-1.833,0.948,0.957
4894,-1.165,1.256,0.977
4895,0.800,0.692,1.026
4896,0.984,0.007,1.037
4897,0.160,-0.171,1.009
4898,0.140,-0.511,1.000
4899,0.224,-0.379,1.007
4900,0.401,-0.743,1.012
4901,-0.195,-0.874,1.054
4902,-0.630,0.190,0.997
4903,-0.724,0.498,0.985
4904,0.118,0.780,1.002
4905,0.205,0.543,1.016
4906,0.100,0.406,1.014
4907,-0.265,0.050,1.009
4908,-0.092,-0.070,0.995
4909,0.595,-0.300,1.004
4910,0.724,-0.383,1.025
4911,-0.351,-0.296,1.010
4912,-0.400,0.366,1.007
4913,0.112,0.215,1.010
4914,0.165,0.211,0.999
4915,-0.064,0.336,0.991
4916,-0.186,0.519,1.013
4917,0.304,0.177,1.079
4918,0.782,-0.172,1.005
4919,-0.278,-0.587,0.981
4920,-0.256,-0.155,1.005
4921,0.008,-0.598,1.009
4922,0.083,-1.063,1.017
4923,0.425,-0.291,1.023
4924,-0.162,-0.023,0.997
4925,-1.286,0.341,0.963
4926,-1.650,0.645,0.966
4927,-0.588,0.723,1.014
4928,1.141,0.131,1.042
4929,0.237,-0.254,1.011
4930,0.069,-0.323,1.002
4931,0.121,-0.562,0.989
4932,-0.041,-0.632,0.997
4933,-0.419,-0.261,1.040
4934,-1.171,0.093,1.017
4935,-0.831,0.600,0.976
4936,0.312,0.744,1.005
4937,0.282,0.310,1.012
4938,0.126,0.524,1.016
4939,-0.167,0.242,1.013
4940,-0.334,0.142,0.999
4941,0.081,-0.184,0.994
4942,0.821,-0.296,1.009
4943,0.689,-0.091,1.031
4944,-0.338,0.107,1.013
4945,-0.782,0.181,1.000
4946,0.019,-0.041,1.008
4947,0.109,0.202,0.999
4948,0.018,0.262,0.995
4949,-0.149,0.407,1.014
4950,0.129,-0.073,1.076
4951,0.544,-0.268,0.996
4952,0.103,-0.177,0.993
4953,-0.519,0.155,0.997
4954,0.047,-0.115,1.009
4955,0.273,-0.407,1.019
4956,0.396,-0.245,1.017
4957,-0.014,-0.208,1.000
4958,-0.602,-0.103,0.967
4959,-0.725,-0.061,0.998
4960,-0.330,-0.086,1.016
4961,0.086,0.424,1.029
4962,-0.046,0.247,1.009
4963,-0.027,0.161,1.003
4964,0.114,-0.353,0.996
4965,0.064,-0.598,1.001
4966,-0.300,-0.514,1.057
4967,-0.606,0.044,1.005
4968,-0.598,0.485,0.971
4969,-0.203,0.428,0.997
4970,0.258,0.558,1.012
4971,0.099,0.505,1.016
4972,0.037,0.612,1.013
4973,-0.208,-0.031,1.004
4974,0.114,-0.441,0.995
4975,0.594,-0.090,1.004
4976,0.702,0.002,1.025
4977,0.055,-0.075,1.024
4978,-0.686,-0.190,1.005
4979,-0.227,-0.231,1.007
4980,0.119,-0.193,1.004
4981,0.102,0.072,1.000
4982,-0.099,0.330,1.010
4983,-0.200,0.305,1.065
4984,-0.203,-0.348,0.981
4985,0.137,-0.142,0.996
4986,-0.212,0.218,1.000
4987,-0.008,0.071,1.008
4988,0.165,-0.102,1.014
4989,0.310,-0.210,1.015
4990,0.067,-0.222,0.999
4991,-0.240,-0.249,0.981
4992,-0.331,-0.323,0.994
4993,-0.371,-0.309,1.008
4994,-0.338,0.347,1.025
4995,-0.136,0.632,1.010
4996,-0.044,0.266,1.008
4997,0.051,-0.028,1.001
4998,0.102,-0.366,1.001
4999,-0.161,-0.580,1.055
5000,-0.243,-0.187,1.013
5001,-0.327,0.237,0.974
5002,-0.346,0.306,0.991
5003,0.038,0.277,1.009
5004,-0.023,0.565,1.011
5005,0.071,0.674,1.014
5006,-0.065,0.324,1.009
5007,-0.009,0.364,0.993
5008,0.363,0.296,0.991
5009,1.124,-0.099,1.025
5010,1.194,-0.339,1.050
5011,-0.118,-0.742,1.014
5012,-0.949,-0.264,0.993
5013,0.050,-0.452,1.007
5014,0.313,-0.458,1.005
5015,0.266,-0.161,1.016
5016,-0.514,0.299,1.050
5017,-1.015,0.251,0.972
5018,-0.821,0.299,0.975
5019,-0.028,0.175,1.005
5020,0.582,0.002,1.020
5021,0.023,-0.010,1.009
5022,0.087,-0.339,1.010
5023,0.247,-0.404,1.009
5024,0.043,-0.270,0.988
5025,-0.456,-0.193,0.977
5026,-0.791,-0.041,0.993
5027,-0.679,0.091,1.023
5028,-0.083,0.454,1.024
5029,0.120,0.559,1.016
5030,-0.068,0.244,1.009
5031,-0.136,0.268,1.000
5032,0.028,0.035,1.038
5033,-0.080,-0.455,1.021
5034,0.175,-0.028,1.005
5035,0.270,0.047,0.986
5036,0.051,0.014,1.001
5037,-0.415,0.346,1.000
5038,-0.192,0.084,1.007
5039,0.010,-0.098,1.008
5040,0.068,0.065,1.008
5041,0.036,0.039,0.997
5042,-0.155,0.314,0.982
5043,-0.154,0.652,1.000
5044,0.303,0.649,1.037
5045,0.839,0.191,1.057
5046,-0.409,-1.017,0.984
5047,-0.103,-0.163,1.010
