gyroscope	 104.0Hz
cycle sample index,gyro X,gyro Y,gyro Z
0,-1.421,0.559,-21.622
1,-1.282,1.188,-68.618
2,4.054,0.909,-164.801
3,6.221,1.654,-281.860
4,5.243,2.493,-373.569
5,4.054,2.447,-364.948
6,0.909,1.491,-249.566
7,1.794,1.048,-111.258
8,3.984,0.885,-39.936
9,0.816,0.140,-48.814
10,1.887,0.140,-118.807
11,4.334,-0.233,-241.481
12,4.660,-0.839,-366.253
13,4.474,0.746,-406.632
14,5.196,2.050,-288.221
15,-0.513,1.445,-115.894
16,0.583,-0.047,-13.654
17,1.654,-0.373,-15.728
18,-1.188,1.048,-96.951
19,1.981,1.398,-235.237
20,3.099,1.911,-364.715
21,5.103,1.934,-407.727
22,5.545,1.911,-327.365
23,4.194,1.165,-174.470
24,-0.326,0.047,-52.984
25,0.070,-0.023,-22.391
26,0.350,0.350,-74.350
27,1.328,1.841,-189.289
28,3.029,4.147,-316.088
29,6.105,4.846,-392.535
30,2.796,2.167,-342.137
31,5.103,-0.280,-180.855
32,3.518,-0.722,-53.637
33,-2.447,0.909,-22.834
34,0.070,0.955,-76.308
35,4.450,0.909,-174.983
36,6.338,1.678,-288.105
37,5.079,2.516,-372.311
38,4.031,2.330,-352.506
39,0.979,1.351,-234.188
40,2.260,1.002,-101.052
41,3.006,0.676,-37.816
42,0.979,0.210,-55.151
43,2.703,0.256,-134.674
44,4.846,-0.443,-258.816
45,4.194,-1.142,-373.895
46,4.124,0.816,-390.694
47,4.800,2.097,-259.725
48,-0.536,1.351,-101.798
49,0.652,-0.023,-21.273
50,0.676,0.000,-37.956
51,-0.256,1.072,-128.546
52,2.586,1.351,-255.671
53,3.518,1.817,-361.802
54,5.056,1.841,-378.555
55,5.429,1.678,-288.174
56,4.777,1.188,-154.269
57,0.047,0.000,-57.248
58,-1.072,-0.233,-50.048
59,0.350,0.536,-113.331
60,1.212,2.260,-220.022
61,4.101,4.567,-327.971
62,5.965,4.241,-374.221
63,3.262,0.885,-298.543
64,4.707,-0.792,-148.561
65,2.353,-0.489,-47.882
66,-0.955,0.629,-39.913
67,0.443,1.118,-108.764
68,3.961,1.491,-214.989
69,6.314,1.981,-319.327
70,4.474,2.610,-376.202
71,2.773,2.027,-320.492
72,0.326,1.165,-184.676
73,3.542,1.142,-69.550
74,2.586,0.606,-44.806
75,1.678,0.256,-82.855
76,3.542,0.070,-183.348
77,5.056,-0.909,-310.915
78,3.891,-0.792,-395.774
79,5.010,1.748,-352.203
80,3.262,1.515,-191.340
81,-1.538,1.118,-60.627
82,0.979,-0.163,-23.836
83,-0.210,0.466,-68.735
84,1.701,0.909,-177.593
85,2.470,1.538,-300.617
86,4.846,1.794,-377.064
87,5.965,1.771,-346.960
88,5.848,1.188,-239.501
89,1.911,0.256,-112.935
90,-2.703,-0.606,-49.489
91,-0.373,0.140,-70.203
92,0.979,1.351,-149.563
93,2.237,3.448,-258.257
94,5.382,4.940,-348.312
95,4.194,3.379,-357.981
96,2.843,0.722,-239.920
97,6.291,-1.235,-101.285
98,-0.140,0.303,-39.750
99,-1.934,1.305,-62.654
100,2.353,1.235,-143.575
101,6.268,1.398,-247.865
102,6.058,2.144,-341.485
103,4.590,2.516,-366.509
104,1.887,1.631,-279.250
105,0.792,0.909,-142.246
106,3.542,0.932,-49.093
107,1.118,0.326,-46.647
108,2.423,0.443,-110.302
109,4.753,0.000,-224.915
110,4.194,-1.235,-345.982
111,3.821,-0.210,-393.747
112,4.054,2.586,-303.483
113,1.654,1.701,-143.575
114,-0.210,0.536,-39.004
115,1.282,-0.233,-30.942
116,0.140,0.676,-101.635
117,2.214,1.142,-217.016
118,2.819,1.654,-327.482
119,5.243,1.794,-374.361
120,5.872,1.678,-312.872
121,5.196,1.025,-196.838
122,1.212,0.117,-81.783
123,-1.724,-0.466,-47.788
124,-0.140,0.163,-93.946
125,0.699,1.654,-196.372
126,3.635,4.217,-308.818
127,6.501,4.753,-374.012
128,3.262,1.841,-329.252
129,5.079,-1.025,-185.515
130,3.169,-0.816,-64.611
131,-0.746,0.373,-32.573
132,-0.117,0.932,-84.672
133,2.377,1.468,-186.983
134,6.244,1.794,-295.980
135,5.079,2.516,-371.961
136,3.868,2.260,-347.706
137,0.419,1.235,-223.494
138,1.724,0.885,-90.031
139,3.146,0.816,-41.544
140,1.351,0.419,-73.698
141,3.612,0.536,-164.987
142,4.683,-0.489,-289.036
143,3.938,-0.839,-385.615
144,4.427,1.328,-371.332
145,1.678,3.192,-227.175
146,0.746,1.142,-83.065
147,0.722,0.047,-24.815
148,0.652,0.210,-55.710
149,2.120,0.722,-152.289
150,2.679,1.445,-276.594
151,4.171,1.817,-368.373
152,5.708,1.841,-364.109
153,6.384,1.515,-267.810
154,4.078,0.722,-137.214
155,-1.561,-0.466,-51.749
156,-1.072,-0.280,-59.881
157,0.280,0.652,-132.554
158,1.561,2.679,-242.949
159,5.429,4.730,-345.819
160,5.266,3.658,-370.656
161,3.938,-0.047,-271.934
162,4.567,-1.095,-127.614
163,1.515,-0.373,-38.981
164,-0.885,0.583,-37.863
165,0.350,1.165,-116.011
166,3.821,1.678,-230.297
167,6.291,2.120,-338.130
168,4.567,2.679,-384.194
169,2.097,1.887,-309.401
170,0.186,1.048,-165.523
171,4.008,1.165,-57.994
172,1.678,0.466,-47.812
173,2.120,0.466,-99.864
174,4.357,0.163,-202.500
175,3.775,-0.932,-323.544
176,3.891,-0.233,-389.623
177,4.264,2.516,-323.917
178,1.398,2.400,-168.436
179,-0.047,0.769,-52.635
180,0.932,-0.070,-28.799
181,0.932,0.373,-82.785
182,2.586,0.909,-195.301
183,2.633,1.631,-315.156
184,5.149,1.817,-377.670
185,5.662,1.748,-331.582
186,5.825,1.235,-216.108
187,1.911,0.256,-88.866
188,-1.957,-0.559,-43.152
189,-0.070,0.023,-78.591
190,0.350,1.188,-174.633
191,3.309,3.705,-290.481
192,6.244,4.730,-370.214
193,3.565,2.516,-345.656
194,5.476,-1.235,-211.844
195,3.448,-0.979,-79.896
196,-0.536,0.186,-25.840
197,-1.095,0.909,-63.679
198,2.050,1.212,-161.819
199,5.569,1.678,-275.243
200,5.569,2.353,-361.430
201,4.450,2.423,-360.404
202,1.258,1.328,-252.292
203,0.186,0.629,-115.265
204,3.448,0.885,-38.398
205,0.489,0.280,-51.190
206,2.819,0.699,-132.274
207,5.126,0.163,-256.929
208,3.938,-0.792,-371.379
209,4.241,0.559,-394.539
210,2.889,3.099,-272.890
211,-0.093,1.957,-106.667
212,0.769,0.047,-17.591
213,0.909,-0.023,-32.387
214,1.561,0.699,-118.201
215,3.379,1.212,-242.623
216,3.122,1.887,-352.459
217,5.429,1.911,-383.425
218,5.452,1.701,-304.112
219,5.243,1.165,-166.152
220,0.722,0.000,-52.658
221,-0.140,-0.256,-42.266
222,0.023,-0.070,-103.219
223,-0.093,1.328,-218.740
224,5.359,4.008,-336.988
225,6.454,4.147,-388.085
226,3.029,1.025,-316.717
227,5.010,-1.631,-170.300
228,2.470,-0.839,-61.046
229,-0.373,0.140,-27.611
230,-0.326,0.699,-78.824
231,1.748,1.305,-185.748
232,5.778,1.771,-303.180
233,4.916,2.516,-377.646
234,3.868,2.190,-341.182
235,0.816,1.072,-222.002
236,0.396,0.559,-100.609
237,2.843,0.746,-40.309
238,0.955,0.419,-68.432
239,3.821,0.769,-158.184
240,4.264,-0.233,-284.773
241,4.008,-0.350,-388.434
242,5.056,1.561,-380.885
243,1.398,3.472,-236.891
244,-0.117,1.515,-83.297
245,0.955,-0.117,-11.534
246,0.979,0.047,-39.237
247,2.307,0.676,-138.122
248,2.913,1.491,-274.241
249,4.194,1.981,-380.326
250,5.173,1.887,-384.101
251,6.105,1.841,-284.144
252,4.287,1.025,-136.771
253,-0.676,-0.163,-47.392
254,-0.536,-0.233,-43.291
255,0.396,0.350,-106.201
256,0.932,2.144,-227.152
257,5.243,4.590,-348.848
258,5.872,3.798,-393.467
259,3.798,0.256,-299.615
260,5.289,-1.212,-146.347
261,0.955,-0.233,-40.705
262,-1.305,0.559,-25.187
263,0.769,0.769,-90.288
264,3.099,1.445,-201.708
265,6.105,1.981,-321.959
266,4.497,2.703,-389.483
267,3.006,2.167,-330.813
268,0.909,1.282,-200.287
269,4.008,1.212,-78.008
270,2.144,0.443,-36.511
271,1.654,0.163,-61.675
272,3.076,-0.140,-156.925
273,4.474,-1.072,-295.234
274,3.845,-0.839,-400.247
275,5.848,1.701,-377.646
276,3.052,1.538,-220.535
277,-1.282,1.002,-72.766
278,1.095,-0.256,-9.600
279,-0.443,0.350,-40.752
280,0.280,1.072,-148.747
281,2.610,1.491,-284.027
282,4.520,1.864,-384.823
283,5.243,1.887,-379.301
284,6.268,1.771,-272.959
285,2.773,0.699,-124.655
286,-1.561,-0.326,-37.397
287,0.652,0.070,-34.927
288,0.070,0.513,-108.485
289,1.515,2.656,-238.056
290,5.312,4.870,-360.800
291,5.266,3.612,-394.562
292,4.427,0.023,-284.679
293,4.520,-0.746,-127.917
294,0.676,-0.117,-27.960
295,-1.258,0.652,-30.570
296,1.095,0.979,-110.069
297,4.753,1.421,-226.965
298,6.011,2.144,-341.462
299,4.613,2.679,-385.638
300,2.563,1.911,-309.704
301,0.932,1.072,-178.222
302,3.658,0.955,-62.724
303,1.817,0.326,-31.339
304,1.328,0.047,-68.898
305,2.959,-0.186,-180.039
306,4.474,-0.816,-326.014
307,4.404,0.047,-423.081
308,6.128,2.237,-369.934
309,0.839,1.817,-194.625
310,1.351,0.047,-44.666
311,1.072,-0.303,-2.889
312,0.023,0.233,-36.814
313,-0.350,1.282,-150.168
314,2.027,1.794,-309.587
315,4.287,2.074,-418.817
316,4.590,2.167,-401.785
317,5.056,2.260,-274.451
318,2.377,1.305,-120.484
319,1.025,0.373,-27.354
320,0.513,0.093,-25.700
321,0.536,0.699,-103.545
322,1.608,2.563,-233.326
323,4.940,4.543,-362.315
324,4.707,3.355,-404.278
325,4.147,0.722,-293.370
326,5.103,-0.443,-140.359
327,1.421,-0.210,-31.711
328,-0.792,0.373,-20.690
329,1.771,0.489,-87.235
330,3.938,1.328,-212.566
331,5.033,2.283,-346.518
332,4.380,2.749,-397.079
333,2.004,1.981,-332.188
334,0.559,1.258,-209.397
335,4.054,1.165,-82.156
336,3.472,0.629,-37.723
337,1.375,0.000,-63.143
338,2.959,-0.280,-152.312
339,3.914,-0.792,-291.343
340,4.078,0.233,-393.467
341,6.198,2.190,-356.234
342,0.559,2.004,-220.418
343,1.025,0.443,-86.070
344,0.816,-0.163,-14.842
345,-0.373,0.373,-48.394
346,0.746,0.979,-161.120
347,2.050,1.654,-300.873
348,3.798,1.841,-384.543
349,4.543,2.400,-359.542
350,5.266,2.470,-253.900
351,3.169,1.724,-134.022
352,2.563,1.002,-60.114
353,0.746,0.256,-55.803
354,0.373,0.513,-116.477
355,1.282,1.957,-220.069
356,5.033,3.681,-332.351
357,2.679,2.843,-366.229
358,6.431,-0.303,-274.824
359,4.101,-0.350,-154.502
360,1.305,0.093,-62.164
361,-0.303,0.396,-36.232
362,1.771,0.583,-95.087
363,4.008,1.258,-210.259
364,4.008,2.237,-328.880
365,4.171,2.493,-366.136
366,2.377,1.817,-312.430
367,0.606,1.002,-208.209
368,3.542,0.955,-94.505
369,3.006,0.536,-43.035
370,1.631,0.070,-62.095
371,3.076,-0.303,-157.298
372,3.495,-0.699,-296.423
373,4.427,0.699,-391.114
374,5.848,2.167,-342.533
375,0.443,1.864,-206.881
376,1.864,0.070,-76.704
377,0.932,-0.186,-17.032
378,-0.419,0.419,-50.887
379,0.023,1.118,-160.607
380,1.678,1.724,-300.733
381,3.122,1.841,-382.889
382,4.334,2.679,-360.358
383,4.567,2.889,-264.641
384,4.287,2.260,-137.004
385,3.821,1.235,-50.957
386,1.025,0.210,-45.435
387,-0.140,0.186,-110.256
388,1.072,1.631,-214.453
389,4.683,3.472,-328.996
390,2.866,2.913,-368.373
391,6.338,-0.303,-282.349
392,4.311,-0.443,-161.958
393,1.165,0.117,-67.290
394,0.396,0.210,-37.163
395,1.398,0.559,-88.843
396,3.821,1.165,-201.359
397,3.775,2.167,-319.839
398,4.078,2.447,-364.692
399,2.353,1.794,-320.725
400,0.233,1.002,-224.589
401,3.052,0.979,-110.093
402,3.169,0.676,-48.138
403,2.004,0.256,-54.569
404,2.913,-0.117,-145.788
405,3.635,-0.419,-291.413
406,4.474,0.769,-397.032
407,3.658,3.309,-351.737
408,2.959,1.678,-208.232
409,2.633,-0.070,-72.300
410,0.606,-0.093,-16.310
411,-0.676,0.513,-56.106
412,0.047,1.188,-167.923
413,2.120,1.771,-309.797
414,3.355,1.887,-393.397
415,4.497,2.843,-370.913
416,4.613,3.122,-269.581
417,4.194,2.260,-128.919
418,2.470,0.862,-38.468
419,0.303,0.047,-36.348
420,1.025,0.606,-108.951
421,1.654,1.864,-226.895
422,4.753,3.495,-351.364
423,1.887,2.889,-382.889
424,8.341,-0.303,-287.312
425,3.448,0.140,-159.745
426,1.235,0.070,-51.167
427,0.210,0.000,-13.561
428,1.748,0.326,-72.696
429,3.845,1.142,-208.582
430,4.916,2.190,-343.116
431,4.707,2.074,-393.001
432,0.583,0.979,-356.374
433,-0.816,0.606,-241.668
434,2.074,0.769,-103.056
435,3.029,0.722,-32.154
436,-0.466,0.117,-45.412
437,2.353,0.839,-117.898
438,4.940,1.095,-241.458
439,5.266,1.095,-369.305
440,7.013,2.516,-375.992
441,0.513,3.332,-277.550
442,1.328,1.212,-152.126
443,0.350,0.326,-50.095
444,-0.070,0.070,-20.527
445,0.140,0.513,-88.983
446,1.794,1.305,-225.218
447,3.006,1.887,-340.180
448,6.128,3.402,-385.941
449,7.666,3.984,-345.795
450,5.196,2.959,-235.074
451,2.889,1.445,-112.353
452,0.117,0.047,-37.163
453,0.652,-0.070,-44.060
454,1.351,0.350,-116.453
455,2.004,1.468,-243.252
456,0.699,3.052,-356.047
457,6.314,1.608,-351.853
458,8.178,0.210,-272.424
459,3.309,0.629,-160.956
460,1.678,0.210,-58.227
461,0.955,0.070,-23.184
462,2.423,0.419,-81.410
463,4.730,1.072,-205.273
464,4.986,0.979,-336.499
465,0.419,-0.093,-404.441
466,-2.214,-0.047,-363.829
467,0.583,1.188,-232.604
468,1.654,0.885,-81.830
469,3.192,0.979,-28.659
470,0.862,0.536,-54.895
471,1.724,1.095,-136.701
472,6.244,1.887,-258.374
473,7.176,1.631,-336.172
474,1.515,3.192,-336.499
475,1.887,2.214,-275.196
476,0.792,1.212,-174.633
477,0.093,0.536,-86.303
478,0.722,0.256,-48.837
479,1.025,0.373,-85.092
480,0.839,0.862,-179.690
481,3.215,2.283,-296.213
482,6.710,4.404,-384.730
483,7.083,4.940,-375.107
484,3.495,3.052,-268.323
485,2.470,1.724,-134.860
486,1.258,0.489,-41.311
487,0.303,-0.023,-35.160
488,0.163,0.303,-106.271
489,0.583,2.260,-213.731
490,1.561,3.681,-292.904
491,9.087,1.817,-316.228
492,9.320,0.606,-284.074
493,5.010,1.048,-224.239
494,3.262,0.792,-142.596
495,1.701,0.396,-75.865
496,1.817,0.396,-84.649
497,2.493,0.536,-163.706
498,2.773,0.233,-273.589
499,0.769,-0.466,-347.147
500,1.445,0.093,-341.928
501,3.658,1.002,-262.009
502,4.078,0.955,-152.499
503,2.423,0.536,-67.896
504,0.979,0.233,-54.545
505,1.048,0.396,-107.273
506,2.400,0.443,-169.787
507,4.940,0.326,-249.613
508,3.728,0.816,-309.797
509,-1.654,2.493,-317.602
510,1.421,1.794,-280.555
511,0.979,0.792,-187.565
512,-0.023,0.186,-82.948
513,0.256,0.093,-39.960
514,-0.023,0.443,-85.861
515,1.515,2.074,-195.767
516,4.730,4.823,-325.082
517,5.545,6.687,-393.910
518,5.359,5.126,-353.484
519,1.515,1.515,-228.200
520,0.513,0.676,-66.219
521,-1.491,0.979,-19.572
522,1.002,1.095,-63.003
523,2.167,2.237,-138.821
524,4.287,3.262,-233.955
525,8.738,2.796,-313.455
526,9.670,1.864,-339.900
527,4.940,1.701,-295.001
528,2.913,1.398,-187.449
529,3.122,0.979,-90.171
530,1.095,0.419,-55.454
531,3.029,0.676,-82.109
532,4.287,0.280,-183.767
533,3.379,-1.002,-304.624
534,4.730,-2.214,-373.406
535,5.476,-0.885,-356.071
536,4.287,1.445,-237.660
537,-1.095,1.328,-89.192
538,4.613,-1.654,-36.371
539,0.862,-0.583,-77.100
540,-0.047,-0.023,-162.052
541,0.303,0.583,-255.345
542,2.447,0.862,-318.068
543,3.565,1.258,-317.369
544,3.635,1.235,-250.475
545,3.705,0.699,-158.859
546,0.373,-0.256,-103.755
547,-1.095,-0.489,-105.502
548,-0.443,0.489,-161.516
549,3.029,2.214,-249.613
550,4.194,3.635,-312.057
551,5.219,4.753,-310.985
552,3.122,2.027,-257.139
553,2.796,-1.282,-172.653
554,2.540,-0.792,-96.602
555,2.493,-0.140,-68.153
556,0.536,0.955,-106.737
557,-0.280,2.190,-182.276
558,3.798,2.516,-266.529
559,5.569,2.447,-330.487
560,3.099,2.260,-334.681
561,0.652,1.771,-247.236
562,2.050,1.631,-136.002
563,4.753,1.631,-84.113
564,2.889,1.142,-99.048
565,3.565,0.955,-155.318
566,2.400,0.816,-253.481
567,4.893,0.233,-330.907
568,3.285,-0.676,-337.803
569,3.425,2.866,-265.970
570,0.816,2.889,-148.258
571,1.258,0.769,-62.071
572,0.792,0.256,-48.091
573,2.447,0.326,-108.135
574,3.076,1.025,-216.201
575,3.262,1.678,-327.412
576,6.244,1.817,-372.218
577,7.153,1.608,-314.201
578,5.522,0.652,-203.665
579,-0.140,-0.350,-92.408
580,-3.169,-0.816,-62.234
581,0.047,0.256,-99.351
582,1.095,1.701,-184.303
583,5.033,3.751,-289.736
584,5.708,4.101,-354.812
585,2.353,1.957,-320.119
586,5.918,-1.515,-191.759
587,3.215,-0.909,-82.762
588,-0.256,0.210,-39.237
589,-0.629,0.885,-74.234
590,1.701,1.305,-165.943
591,5.289,1.724,-273.845
592,4.590,2.447,-359.263
593,2.726,2.307,-347.147
594,0.489,1.701,-225.218
595,3.681,1.515,-100.446
596,3.355,0.979,-57.947
597,1.701,0.489,-80.688
598,3.029,0.419,-163.962
599,2.214,-0.210,-285.565
600,5.173,-0.140,-371.355
601,4.637,1.025,-359.030
602,1.794,3.192,-224.868
603,0.117,1.515,-80.525
604,0.746,0.070,-21.436
605,0.676,0.233,-52.076
606,2.749,0.583,-142.946
607,3.099,1.351,-264.129
608,3.868,1.841,-361.872
609,6.454,1.864,-371.332
610,6.641,1.375,-284.446
611,3.635,0.396,-154.199
612,-2.703,-0.746,-57.947
613,-0.746,-0.233,-53.800
614,0.396,0.489,-112.889
615,1.538,2.283,-221.560
616,5.289,4.450,-329.509
617,6.081,4.124,-372.544
618,2.563,0.909,-295.887
619,6.105,-1.608,-150.075
620,1.491,-0.396,-50.072
621,-1.654,0.722,-35.439
622,-0.443,1.258,-100.516
623,4.031,1.258,-205.459
624,6.361,1.887,-313.455
625,4.660,2.563,-375.759
626,2.913,2.074,-324.010
627,0.862,1.282,-185.305
628,3.635,1.165,-67.500
629,1.561,0.443,-39.028
630,2.144,0.396,-74.863
631,3.495,0.117,-179.503
632,4.870,-0.955,-316.647
633,4.054,-1.025,-408.006
634,4.637,1.584,-371.076
635,4.008,1.468,-200.357
636,-1.095,0.885,-48.767
637,1.538,-0.466,-8.295
638,-0.326,0.373,-54.196
639,0.443,1.142,-162.844
640,2.330,1.561,-291.693
641,4.171,1.911,-383.471
642,5.778,1.841,-370.377
643,5.639,1.282,-260.797
644,1.794,0.326,-115.918
645,-1.864,-0.443,-35.183
646,0.606,0.140,-45.179
647,0.443,0.792,-128.336
648,1.841,3.052,-260.028
649,5.289,5.312,-369.119
650,5.312,3.845,-385.988
651,3.518,0.396,-267.368
652,5.476,-1.142,-109.417
653,0.699,-0.117,-28.007
654,-1.981,1.002,-41.358
655,0.513,1.468,-125.144
656,5.639,1.538,-242.460
657,6.920,2.190,-352.506
658,5.056,2.726,-392.116
659,2.097,1.841,-312.057
660,0.652,1.025,-163.380
661,3.961,1.025,-50.794
662,1.002,0.233,-33.785
663,1.165,0.210,-87.888
664,4.497,0.233,-208.116
665,4.986,-1.002,-346.075
666,3.775,-0.186,-417.606
667,4.171,2.889,-339.924
668,1.701,1.934,-166.968
669,0.210,0.303,-29.917
670,1.654,-0.466,-6.314
671,-0.373,0.559,-65.333
672,1.584,1.258,-198.889
673,2.936,1.864,-346.168
674,5.243,2.050,-424.969
675,5.942,2.097,-376.481
676,5.569,1.538,-228.037
677,-0.140,0.117,-74.840
678,-0.489,-0.163,-16.310
679,1.282,0.256,-40.705
680,0.210,0.955,-143.644
681,2.447,3.588,-292.252
682,6.827,5.033,-404.814
683,3.588,2.237,-388.528
684,5.732,-0.559,-239.338
685,4.147,-0.699,-88.657
686,-1.421,0.396,-15.821
687,0.023,0.466,-43.291
688,2.074,0.979,-133.276
689,5.033,1.678,-263.873
690,4.683,2.610,-377.250
691,3.588,2.610,-383.891
692,0.583,1.911,-280.555
693,2.796,1.608,-136.142
694,5.010,1.165,-53.474
695,1.375,0.233,-52.984
696,1.212,-0.047,-114.846
697,2.353,-0.326,-240.293
698,4.870,-0.070,-361.057
699,5.429,1.515,-385.359
700,1.911,3.612,-271.096
701,1.445,1.445,-120.811
702,0.862,0.000,-18.197
703,0.979,-0.163,-19.339
704,0.210,0.792,-110.395
705,2.749,1.351,-258.933
706,4.311,1.957,-389.692
707,5.592,2.050,-418.282
708,7.340,2.144,-321.633
709,3.122,0.885,-156.460
710,-1.957,-0.350,-39.494
711,0.769,0.047,-21.949
712,0.699,0.303,-71.298
713,0.769,1.748,-193.157
714,4.427,4.264,-334.285
715,5.732,3.984,-407.424
716,3.868,0.606,-331.932
717,6.035,-0.932,-181.344
718,1.817,-0.210,-59.345
719,-1.282,0.489,-23.510
720,1.188,0.489,-71.741
721,3.006,1.188,-178.338
722,4.777,2.004,-307.211
723,3.705,2.703,-381.444
724,1.748,2.260,-337.920
725,0.303,1.701,-212.519
726,5.429,1.817,-92.571
727,3.169,0.746,-60.207
728,1.142,0.186,-88.936
729,0.676,-0.093,-184.187
730,4.357,0.419,-302.271
731,4.823,0.443,-367.301
732,5.615,2.679,-317.579
733,-0.373,3.215,-185.282
734,1.118,0.746,-66.615
735,1.095,-0.070,-23.440
736,0.932,0.373,-74.560
737,2.586,1.002,-196.978
738,3.006,1.771,-332.398
739,5.266,1.957,-400.807
740,5.708,2.074,-353.228
741,5.988,1.631,-211.774
742,1.002,0.373,-78.661
743,-0.932,-0.280,-28.543
744,1.282,0.186,-56.363
745,-0.047,0.769,-157.625
746,3.122,3.355,-293.207
747,6.757,4.380,-391.859
748,2.470,2.004,-364.738
749,7.200,-1.515,-225.381
750,2.400,-0.559,-92.548
751,-0.699,0.256,-23.719
752,0.117,0.443,-47.509
753,1.538,1.072,-139.031
754,4.916,1.678,-266.995
755,4.613,2.563,-373.988
756,3.845,2.516,-374.012
757,1.072,1.678,-270.047
758,2.074,1.235,-132.181
759,4.590,1.048,-47.322
760,0.676,0.117,-44.456
761,2.843,0.210,-110.978
762,3.169,-0.583,-238.848
763,3.914,-0.746,-369.002
764,4.777,1.398,-400.667
765,2.423,3.448,-280.951
766,1.561,1.165,-115.615
767,1.887,-0.396,-11.277
768,0.280,-0.023,-17.522
769,0.000,0.699,-100.470
770,2.004,1.351,-244.534
771,4.031,1.934,-377.949
772,5.848,2.004,-414.624
773,6.687,1.864,-333.237
774,3.006,0.909,-179.317
775,-1.701,-0.140,-54.639
776,-0.326,-0.093,-20.760
777,1.118,0.536,-60.161
778,1.515,1.817,-170.393
779,3.239,3.868,-308.306
780,5.685,4.380,-401.459
781,2.214,2.400,-354.160
782,6.268,0.047,-203.246
783,3.495,-0.466,-68.688
784,-0.862,0.233,-9.646
785,0.909,0.280,-48.394
786,2.610,1.048,-155.551
787,6.058,1.748,-298.007
788,5.336,2.726,-399.968
789,4.078,2.330,-377.530
790,1.748,1.328,-264.106
791,1.445,0.583,-120.484
792,2.773,0.513,-26.655
793,-0.256,-0.117,-28.170
794,2.004,0.163,-105.456
795,4.870,-0.140,-241.854
796,4.171,-0.443,-383.308
797,4.940,1.981,-414.880
798,2.330,3.169,-282.792
799,3.099,0.466,-108.182
800,0.909,-0.233,-7.433
801,0.140,0.047,-16.799
802,-0.489,0.909,-102.054
803,1.631,1.468,-249.566
804,3.635,2.027,-385.219
805,4.264,2.097,-419.563
806,5.569,2.703,-333.633
807,3.076,2.004,-189.546
808,2.423,1.048,-59.066
809,0.280,0.000,-12.535
810,1.025,0.396,-60.114
811,1.095,1.468,-172.630
812,3.285,3.472,-313.525
813,5.103,3.938,-407.424
814,4.311,1.328,-352.459
815,6.477,-0.326,-211.587
816,1.584,0.163,-78.404
817,0.000,0.047,-12.326
818,0.979,0.233,-47.788
819,3.355,0.862,-160.584
820,4.893,1.887,-303.156
821,5.452,2.516,-387.502
822,3.845,1.794,-369.095
823,0.746,0.629,-276.361
824,0.256,0.163,-139.753
825,1.678,0.326,-33.855
826,-0.326,0.000,-23.323
827,1.957,0.536,-90.124
828,5.196,0.769,-220.674
829,4.380,0.466,-370.470
830,7.316,2.167,-414.880
831,1.491,3.658,-311.637
832,2.330,1.212,-162.587
833,0.256,0.163,-31.735
834,0.373,-0.093,-4.497
835,0.047,0.373,-61.675
836,0.559,1.235,-203.246
837,2.307,1.841,-345.609
838,3.355,2.959,-405.443
839,6.035,4.474,-368.746
840,5.755,3.798,-238.569
841,4.683,2.120,-100.050
842,0.979,0.280,-24.139
843,0.862,0.023,-41.101
844,1.258,0.489,-125.284
845,2.144,1.771,-250.941
846,3.379,3.215,-366.882
847,3.122,1.864,-360.637
848,8.481,-0.419,-263.127
849,3.052,0.373,-151.194
850,1.468,0.186,-62.491
851,2.447,0.070,-34.158
852,2.679,0.350,-89.053
853,3.868,0.885,-206.974
854,3.192,1.095,-333.959
855,-1.817,0.443,-394.469
856,-3.821,1.491,-350.129
857,3.518,2.633,-220.138
858,2.004,1.351,-93.107
859,4.823,1.678,-57.271
860,1.957,0.955,-85.791
861,2.237,1.025,-147.722
862,3.612,1.095,-250.918
863,8.062,1.188,-333.376
864,2.866,2.843,-311.265
865,0.466,2.749,-239.524
866,0.792,1.282,-156.157
867,0.117,0.676,-99.910
868,0.489,0.513,-94.458
869,1.678,0.676,-133.719
870,1.817,1.142,-210.585
871,4.194,2.307,-290.202
872,8.551,3.612,-328.227
873,9.763,3.448,-306.581
874,4.101,1.375,-231.486
875,0.839,0.233,-133.183
876,-0.583,-0.396,-72.137
877,0.489,-0.186,-79.267
878,1.235,0.419,-144.926
879,0.396,1.887,-253.947
880,1.398,2.633,-304.741
881,8.668,0.419,-291.646
882,6.291,0.466,-240.060
883,4.147,0.699,-170.090
884,2.679,0.536,-103.405
885,1.934,0.466,-85.301
886,2.959,0.699,-130.597
887,2.982,0.722,-216.131
888,0.909,0.186,-302.737
889,-2.540,-0.117,-334.704
890,-0.513,1.235,-294.209
891,2.237,1.957,-186.190
892,3.379,1.654,-88.027
893,2.959,1.258,-68.362
894,1.188,0.885,-108.834
895,3.262,1.235,-192.085
896,7.503,1.002,-280.555
897,5.103,1.748,-297.844
898,-0.979,3.332,-268.556
899,1.282,1.724,-212.449
900,0.513,1.095,-154.572
901,0.885,0.559,-105.363
902,0.093,0.350,-89.519
903,0.722,0.816,-137.284
904,3.821,1.981,-227.268
905,8.015,3.402,-312.173
906,10.858,3.798,-343.885
907,5.592,1.631,-297.867
908,0.932,0.326,-193.670
909,-0.373,-0.140,-96.625
910,-0.419,-0.256,-62.001
911,1.048,0.280,-89.192
912,0.326,1.142,-174.470
913,0.350,2.540,-247.656
914,5.499,1.654,-287.079
915,9.204,0.373,-278.039
916,5.592,0.955,-238.476
917,3.728,0.979,-178.688
918,2.610,0.652,-112.376
919,1.654,0.419,-89.472
920,1.165,0.443,-121.976
921,1.375,0.536,-208.582
922,0.140,0.536,-300.803
923,-0.816,0.979,-341.415
924,4.427,2.470,-308.376
925,5.266,1.911,-211.867
926,2.866,0.769,-113.355
927,1.328,0.256,-54.662
928,1.538,0.233,-62.537
929,4.147,0.606,-141.711
930,1.981,1.887,-226.383
931,2.050,2.726,-303.483
932,3.052,2.074,-340.856
933,2.586,1.631,-311.917
934,2.913,1.095,-218.834
935,1.561,0.489,-87.282
936,2.027,0.303,-22.881
937,1.351,0.163,-55.827
938,1.445,0.140,-157.368
939,0.722,1.188,-292.951
940,4.147,4.543,-400.457
941,6.524,5.848,-394.912
942,4.054,3.262,-282.280
943,1.864,-0.419,-140.196
944,0.256,-0.280,-29.568
945,0.117,0.047,-12.489
946,1.794,0.093,-76.005
947,3.821,0.583,-176.940
948,1.608,2.679,-287.708
949,8.085,2.283,-362.175
950,5.755,2.283,-364.552
951,2.470,1.678,-271.422
952,1.048,0.862,-120.205
953,2.423,0.606,-34.461
954,0.093,0.280,-44.247
955,2.004,1.002,-113.611
956,5.662,1.445,-234.724
957,5.033,0.466,-363.154
958,4.404,-1.142,-411.105
959,3.798,0.396,-342.883
960,1.235,3.122,-188.916
961,0.466,1.095,-54.196
962,0.746,-0.186,-8.551
963,0.932,0.210,-52.215
964,1.654,1.118,-153.850
965,4.287,1.398,-272.563
966,3.681,1.934,-367.604
967,6.268,1.911,-377.530
968,6.710,1.515,-288.734
969,4.590,0.606,-160.630
970,-0.862,-0.443,-58.273
971,-1.048,-0.466,-46.926
972,0.722,0.047,-99.794
973,-0.023,1.118,-212.729
974,4.870,3.891,-333.074
975,6.524,4.357,-388.900
976,3.402,1.608,-326.573
977,4.777,-1.608,-178.967
978,2.866,-1.002,-66.172
979,-0.373,0.140,-27.890
980,-0.443,0.699,-75.678
981,1.561,1.235,-178.362
982,5.545,1.724,-292.695
983,5.103,2.423,-371.798
984,3.681,2.307,-345.143
985,1.328,1.351,-217.739
986,2.586,0.979,-87.725
987,1.491,0.419,-34.228
988,1.375,0.373,-66.871
989,3.938,0.489,-171.581
990,4.264,-0.699,-310.240
991,4.171,-0.885,-406.608
992,4.450,1.421,-380.699
993,2.470,2.656,-216.550
994,-0.233,0.955,-55.338
995,1.701,-0.513,-6.617
996,0.350,0.233,-52.192
997,1.282,1.048,-159.069
998,2.656,1.584,-287.173
999,3.891,1.981,-379.580
1000,5.452,1.887,-374.151
1001,5.452,1.491,-272.354
1002,3.588,0.816,-131.365
1003,-1.328,-0.350,-40.542
1004,0.140,-0.047,-43.338
1005,0.885,0.559,-120.694
1006,1.165,2.447,-253.621
1007,5.196,5.033,-370.517
1008,5.755,3.938,-397.754
1009,4.590,-0.117,-285.052
1010,4.683,-1.072,-126.892
1011,0.443,-0.117,-27.261
1012,-0.955,0.559,-30.989
1013,0.652,1.072,-113.378
1014,3.728,1.748,-233.513
1015,6.524,2.167,-347.822
1016,4.730,2.749,-395.145
1017,1.817,1.981,-316.531
1018,1.258,1.351,-164.055
1019,4.800,1.282,-56.270
1020,0.885,0.233,-41.777
1021,2.307,0.303,-95.367
1022,3.495,-0.210,-215.012
1023,4.241,-0.955,-349.384
1024,4.101,0.186,-411.268
1025,3.961,3.052,-323.497
1026,1.771,1.701,-150.168
1027,0.326,0.186,-22.135
1028,1.701,-0.466,-8.528
1029,-0.862,0.792,-75.655
1030,2.167,1.235,-211.121
1031,3.122,1.887,-353.927
1032,5.569,2.027,-420.309
1033,6.151,1.957,-360.847
1034,5.336,1.351,-215.875
1035,-0.652,-0.047,-67.826
1036,-0.443,-0.186,-16.916
1037,1.794,0.280,-40.822
1038,0.000,0.676,-142.643
1039,2.610,3.355,-292.904
1040,6.873,4.823,-405.234
1041,3.192,2.377,-388.248
1042,7.037,-1.258,-241.318
1043,2.913,-0.606,-93.876
1044,-1.095,0.303,-17.941
1045,0.210,0.373,-41.567
1046,1.212,1.025,-124.306
1047,4.613,1.631,-250.708
1048,4.660,2.540,-369.258
1049,3.425,2.633,-384.986
1050,0.652,2.050,-279.134
1051,3.518,1.817,-134.884
1052,4.963,1.188,-61.302
1053,1.048,0.186,-66.591
1054,0.629,-0.070,-140.755
1055,2.936,0.023,-261.682
1056,5.196,0.000,-356.863
1057,5.173,1.561,-357.189
1058,1.398,3.425,-235.330
1059,0.885,1.351,-97.907
1060,1.142,-0.093,-18.197
1061,0.606,0.093,-35.789
1062,1.771,0.839,-145.951
1063,2.913,1.584,-294.279
1064,4.683,2.027,-403.533
1065,5.708,2.050,-398.174
1066,6.734,1.864,-283.724
1067,3.052,0.769,-121.230
1068,-2.260,-0.513,-28.356
1069,1.282,0.140,-27.541
1070,0.885,0.326,-96.019
1071,0.396,1.911,-232.790
1072,5.243,4.637,-366.369
1073,5.476,3.681,-409.870
1074,4.870,-0.186,-303.599
1075,5.312,-1.142,-147.582
1076,0.093,0.023,-37.117
1077,-0.513,0.350,-23.673
1078,0.559,0.769,-86.094
1079,3.262,1.375,-199.168
1080,5.359,2.144,-328.297
1081,3.961,2.749,-393.327
1082,1.561,2.214,-328.693
1083,1.118,1.654,-186.726
1084,5.848,1.654,-74.886
1085,1.934,0.443,-53.870
1086,0.909,0.093,-95.623
1087,1.421,-0.117,-205.063
1088,4.707,0.070,-328.134
1089,4.753,0.583,-382.493
1090,4.404,3.006,-304.834
1091,0.093,2.540,-153.477
1092,0.979,0.233,-32.294
1093,1.165,-0.280,-11.580
1094,0.466,0.606,-85.721
1095,3.029,1.142,-222.795
1096,3.309,1.934,-358.937
1097,5.895,2.050,-414.600
1098,6.408,1.934,-348.428
1099,5.988,1.375,-201.755
1100,-0.606,-0.140,-61.978
1101,-1.608,-0.443,-24.721
1102,1.841,0.326,-57.458
1103,0.117,0.769,-158.417
1104,2.493,3.355,-296.003
1105,7.013,4.567,-395.424
1106,2.586,2.050,-366.928
1107,7.363,-1.515,-224.263
1108,2.610,-0.606,-89.565
1109,-0.885,0.280,-22.182
1110,0.117,0.466,-48.814
1111,1.328,1.142,-138.262
1112,4.893,1.701,-265.340
1113,4.590,2.563,-373.429
1114,3.355,2.516,-373.313
1115,0.559,1.817,-260.844
1116,3.332,1.584,-118.154
1117,4.264,1.025,-51.819
1118,1.445,0.256,-59.671
1119,1.654,-0.023,-133.812
1120,2.703,-0.419,-264.315
1121,4.893,-0.210,-375.270
1122,5.010,1.654,-377.460
1123,1.584,3.355,-242.600
1124,1.188,1.002,-85.674
1125,1.328,-0.326,-6.617
1126,0.559,0.070,-31.525
1127,1.025,0.955,-140.080
1128,2.656,1.584,-287.592
1129,4.287,2.050,-400.970
1130,5.219,2.027,-403.137
1131,6.128,1.911,-288.011
1132,2.353,0.792,-124.515
1133,-0.909,-0.186,-25.444
1134,1.491,0.186,-20.807
1135,0.909,0.303,-86.653
1136,0.373,1.794,-228.293
1137,4.893,4.753,-369.328
1138,5.965,4.031,-420.728
1139,4.753,0.047,-315.855
1140,5.499,-1.142,-151.450
1141,0.256,-0.047,-32.107
1142,-0.536,0.303,-19.339
1143,0.373,0.769,-81.434
1144,2.982,1.398,-193.856
1145,5.569,2.097,-323.963
1146,4.194,2.796,-395.704
1147,1.911,2.237,-338.805
1148,0.443,1.561,-197.048
1149,5.685,1.678,-75.422
1150,1.981,0.489,-49.233
1151,1.841,0.256,-83.461
1152,1.724,-0.210,-185.002
1153,4.008,-0.350,-317.369
1154,4.543,0.350,-392.605
1155,4.543,2.959,-331.792
1156,0.769,2.656,-177.266
1157,1.095,0.326,-42.010
1158,1.538,-0.419,-6.850
1159,-0.140,0.559,-66.778
1160,2.447,1.095,-200.217
1161,2.913,1.864,-345.003
1162,5.406,2.050,-419.167
1163,5.802,2.027,-366.556
1164,5.359,1.515,-219.696
1165,0.163,0.233,-73.162
1166,-0.489,-0.186,-17.522
1167,1.771,0.280,-40.659
1168,0.186,0.629,-140.103
1169,1.934,3.169,-287.242
1170,6.920,4.893,-401.948
1171,3.146,2.516,-388.551
1172,7.130,-1.188,-243.042
1173,2.982,-0.606,-94.621
1174,-0.769,0.210,-17.685
1175,0.070,0.396,-40.495
1176,1.235,1.048,-125.890
1177,4.683,1.631,-253.551
1178,4.777,2.516,-369.771
1179,3.681,2.633,-383.984
1180,0.699,1.911,-281.883
1181,2.563,1.561,-134.697
1182,5.173,1.212,-53.497
1183,1.258,0.210,-53.474
1184,1.724,0.000,-116.151
1185,2.516,-0.466,-242.204
1186,4.730,-0.350,-365.134
1187,4.823,1.398,-389.040
1188,2.214,3.472,-268.672
1189,1.491,1.188,-108.928
1190,1.398,-0.280,-10.835
1191,0.652,-0.070,-20.737
1192,0.163,0.862,-113.634
1193,2.586,1.421,-261.449
1194,4.194,2.027,-389.856
1195,5.942,2.097,-416.651
1196,6.827,1.887,-325.385
1197,3.518,0.955,-166.362
1198,-2.027,-0.350,-45.039
1199,0.676,0.023,-21.203
1200,1.188,0.303,-67.244
1201,0.280,1.445,-188.031
1202,4.241,4.194,-333.004
1203,6.314,4.217,-415.392
1204,3.402,0.932,-346.308
1205,6.617,-1.048,-194.439
1206,1.887,-0.186,-67.081
1207,-0.885,0.326,-21.389
1208,1.002,0.419,-64.867
1209,2.726,1.142,-172.140
1210,4.823,1.981,-304.764
1211,3.914,2.703,-382.400
1212,2.656,2.260,-343.093
1213,0.489,1.538,-231.742
1214,4.194,1.468,-104.687
1215,3.635,0.792,-46.880
1216,1.095,0.140,-60.370
1217,0.769,-0.233,-155.411
1218,3.635,-0.070,-299.195
1219,4.800,0.513,-395.960
1220,5.685,2.913,-356.374
1221,0.862,3.029,-210.585
1222,2.050,0.326,-63.120
1223,1.118,-0.303,-3.542
1224,-0.466,0.326,-36.674
1225,1.235,0.955,-154.036
1226,2.679,1.701,-310.869
1227,5.545,2.050,-418.864
1228,6.175,2.167,-405.327
1229,5.965,1.771,-275.499
1230,0.629,0.606,-115.219
1231,-1.608,-0.280,-23.253
1232,1.072,0.210,-24.442
1233,1.142,0.816,-96.276
1234,1.584,2.470,-226.150
1235,4.846,4.334,-358.913
1236,4.241,3.332,-405.746
1237,4.334,1.002,-295.724
1238,5.336,-0.350,-144.949
1239,1.212,-0.117,-32.201
1240,-0.256,0.186,-16.753
1241,1.515,0.559,-88.820
1242,4.637,1.282,-225.311
1243,5.476,2.353,-362.851
1244,5.056,2.633,-404.511
1245,2.936,1.701,-334.355
1246,1.095,0.652,-201.638
1247,2.447,0.466,-63.819
1248,0.466,0.023,-10.788
1249,0.303,-0.047,-53.380
1250,3.891,0.210,-168.063
1251,4.474,-0.210,-326.713
1252,4.986,1.095,-431.889
1253,4.124,3.518,-368.653
1254,2.959,1.654,-205.879
1255,1.794,-0.023,-50.841
1256,0.466,-0.140,-3.775
1257,-0.396,0.373,-45.808
1258,0.117,1.118,-158.230
1259,2.120,1.794,-310.076
1260,3.425,2.050,-410.127
1261,5.079,3.215,-397.545
1262,5.266,3.448,-290.574
1263,4.124,2.260,-132.041
1264,1.328,0.466,-24.605
1265,0.629,0.070,-23.207
1266,1.258,0.559,-95.740
1267,1.515,1.724,-219.276
1268,4.543,3.425,-355.768
1269,1.981,2.959,-396.147
1270,8.411,0.093,-305.766
1271,4.334,0.256,-177.826
1272,1.701,0.093,-59.392
1273,0.583,-0.023,-13.258
1274,1.654,0.256,-65.217
1275,3.309,1.118,-201.056
1276,5.476,2.004,-333.330
1277,4.031,1.538,-386.803
1278,-0.909,0.443,-355.721
1279,-1.258,0.676,-249.147
1280,1.817,0.979,-115.591
1281,4.101,1.095,-39.424
1282,-0.093,0.303,-51.353
1283,2.447,0.979,-119.086
1284,4.404,1.212,-237.194
1285,5.872,1.282,-360.195
1286,6.338,2.679,-365.321
1287,0.606,3.215,-279.880
1288,0.955,1.375,-162.285
1289,0.396,0.443,-66.219
1290,-0.070,0.163,-34.065
1291,0.280,0.513,-88.796
1292,2.470,1.142,-210.865
1293,2.656,1.864,-322.961
1294,6.501,3.542,-380.256
1295,7.666,4.147,-355.605
1296,3.961,2.819,-253.155
1297,1.981,1.491,-129.222
1298,0.979,0.443,-43.291
1299,1.095,0.140,-27.937
1300,1.957,0.419,-90.311
1301,0.955,1.002,-222.911
1302,0.186,3.006,-346.704
1303,7.223,2.237,-364.808
1304,9.134,0.606,-299.731
1305,4.054,0.862,-189.382
1306,2.050,0.326,-75.585
1307,0.559,0.047,-19.828
1308,1.654,0.303,-59.695
1309,3.215,0.885,-164.172
1310,3.658,1.072,-297.308
1311,0.862,0.373,-393.560
1312,-1.678,0.699,-396.100
1313,3.029,2.283,-287.732
1314,2.866,1.375,-121.929
1315,2.679,0.839,-33.832
1316,0.606,0.350,-43.711
1317,1.165,0.676,-102.543
1318,5.103,1.305,-211.657
1319,6.151,1.445,-294.652
1320,1.911,3.076,-326.456
1321,1.934,2.470,-299.288
1322,1.561,1.515,-225.008
1323,1.491,0.792,-134.161
1324,0.373,0.210,-53.846
1325,-0.093,0.047,-36.325
1326,0.489,0.513,-112.842
1327,3.122,1.817,-247.935
1328,7.270,3.728,-375.689
1329,7.409,4.590,-423.571
1330,3.821,3.355,-347.776
1331,0.932,1.794,-193.856
1332,-0.816,0.326,-54.172
1333,0.093,-0.047,-4.450
1334,0.489,0.280,-39.377
1335,0.559,1.561,-120.857
1336,0.932,3.192,-228.643
1337,8.318,2.703,-329.276
1338,12.279,1.282,-369.957
1339,6.710,1.887,-335.753
1340,3.355,1.328,-217.599
1341,1.538,0.443,-79.150
1342,0.000,-0.070,-7.666
1343,0.489,0.117,-31.851
1344,3.192,0.746,-135.443
1345,5.872,0.326,-294.838
1346,4.520,-1.748,-423.571
1347,4.497,-1.608,-434.592
1348,4.357,0.186,-313.245
1349,2.423,0.862,-107.623
1350,1.654,-0.536,-4.800
1351,1.142,-0.443,-19.828
1352,0.023,0.000,-85.138
1353,-0.047,0.629,-183.464
1354,2.447,1.002,-295.281
1355,2.819,1.398,-351.317
1356,2.516,1.748,-329.905
1357,4.287,1.282,-247.120
1358,1.794,0.210,-147.442
1359,-2.423,-0.629,-75.632
1360,-0.559,0.070,-74.840
1361,1.142,1.188,-145.625
1362,3.635,3.052,-257.092
1363,4.963,5.056,-343.069
1364,5.429,4.963,-353.974
1365,2.516,1.934,-276.571
1366,4.683,-1.142,-134.115
1367,0.955,-0.163,-35.556
1368,-0.932,0.722,-32.527
1369,0.746,1.072,-91.243
1370,0.583,2.610,-195.650
1371,6.873,2.726,-314.946
1372,8.271,2.493,-390.671
1373,3.612,2.400,-369.422
1374,1.282,1.957,-242.087
1375,4.334,1.561,-95.996
1376,2.633,0.722,-38.422
1377,0.606,0.210,-40.029
1378,2.843,0.466,-113.005
1379,4.334,-0.117,-252.852
1380,5.103,-1.188,-388.807
1381,4.264,0.047,-434.056
1382,5.476,2.097,-315.296
1383,0.256,1.351,-118.131
1384,0.652,-0.117,-10.205
1385,0.792,-0.210,-13.258
1386,-1.188,0.932,-86.070
1387,2.283,1.142,-214.826
1388,2.889,1.794,-343.512
1389,6.011,2.004,-407.983
1390,7.223,1.678,-357.585
1391,5.406,0.746,-225.917
1392,-2.307,-0.652,-81.410
1393,-2.493,-0.489,-35.323
1394,1.002,0.536,-64.448
1395,1.538,1.794,-164.451
1396,2.679,4.031,-291.739
1397,5.848,5.010,-381.491
1398,2.423,3.076,-363.061
1399,3.635,1.025,-219.742
1400,7.386,-1.421,-80.874
1401,-2.260,0.792,-22.182
1402,-0.303,0.885,-60.044
1403,3.309,1.165,-159.791
1404,6.571,1.794,-283.794
1405,5.592,2.633,-385.522
1406,3.798,2.516,-379.417
1407,0.419,1.678,-258.793
1408,3.681,1.468,-105.619
1409,3.262,0.746,-40.169
1410,0.792,0.140,-51.144
1411,3.006,0.163,-133.532
1412,3.402,-0.676,-269.604
1413,4.334,-0.629,-388.691
1414,4.660,1.817,-394.050
1415,2.773,2.982,-253.947
1416,0.885,0.909,-88.004
1417,1.887,-0.489,-5.429
1418,-0.023,0.117,-25.560
1419,0.163,0.885,-122.814
1420,2.400,1.468,-269.232
1421,4.777,1.934,-392.279
1422,7.083,2.004,-408.938
1423,7.316,1.328,-314.597
1424,1.654,0.210,-156.995
1425,-4.078,-0.839,-45.179
1426,0.862,0.117,-24.558
1427,0.792,0.513,-70.972
1428,1.025,2.167,-195.697
1429,4.567,4.707,-338.689
1430,5.988,4.194,-413.132
1431,2.679,1.561,-333.889
1432,5.778,-0.256,-175.263
1433,2.493,-0.396,-45.249
1434,-1.118,0.350,-11.021
1435,1.118,0.466,-66.824
1436,3.355,1.258,-182.183
1437,5.965,2.004,-322.076
1438,4.497,2.843,-404.348
1439,2.866,2.400,-355.185
1440,1.212,1.584,-223.657
1441,4.846,1.351,-85.977
1442,2.749,0.489,-33.016
1443,0.489,-0.093,-55.454
1444,2.120,-0.303,-153.594
1445,4.264,-0.839,-299.009
1446,3.868,-0.163,-404.325
1447,4.730,2.913,-368.210
1448,2.493,2.074,-214.546
1449,2.144,0.093,-63.679
1450,0.350,-0.117,-6.967
1451,-0.373,0.303,-46.367
1452,0.816,0.839,-150.099
1453,2.144,1.538,-288.384
1454,5.499,1.911,-392.162
1455,6.547,1.771,-387.199
1456,4.940,1.095,-285.099
1457,-0.839,0.350,-145.485
1458,-0.792,0.117,-47.672
1459,0.559,0.163,-25.607
1460,0.396,0.862,-85.558
1461,1.771,2.982,-213.894
1462,5.708,4.870,-349.780
1463,4.241,3.658,-404.651
1464,2.773,2.190,-306.232
1465,6.734,-0.140,-161.096
1466,1.771,-0.047,-44.456
1467,-0.140,0.140,-13.840
1468,1.584,0.419,-72.463
1469,4.567,1.072,-196.955
1470,5.639,2.144,-339.085
1471,5.452,2.656,-401.179
1472,3.542,1.841,-348.055
1473,2.144,0.769,-228.410
1474,1.142,0.117,-88.517
1475,0.699,0.047,-12.232
1476,0.070,-0.047,-35.043
1477,3.565,0.256,-136.352
1478,4.567,-0.396,-296.096
1479,3.984,0.303,-423.431
1480,5.173,3.239,-393.444
1481,2.353,2.377,-236.681
1482,2.237,0.117,-68.153
1483,0.583,-0.163,-3.262
1484,-0.140,0.233,-34.344
1485,0.093,0.932,-135.909
1486,1.538,1.701,-284.819
1487,3.635,1.934,-398.337
1488,4.450,2.726,-399.013
1489,5.079,3.285,-306.488
1490,3.914,2.377,-157.415
1491,2.214,0.816,-36.674
1492,0.419,0.023,-13.514
1493,1.095,0.443,-74.444
1494,1.188,1.561,-197.468
1495,4.474,3.542,-343.419
1496,3.099,3.332,-410.010
1497,6.617,0.513,-326.223
1498,5.382,-0.047,-190.967
1499,1.305,0.117,-62.397
1500,0.140,-0.047,-7.829
1501,1.421,0.186,-49.396
1502,3.309,0.932,-174.168
1503,4.311,2.097,-322.519
1504,5.103,2.470,-392.325
1505,3.262,1.584,-371.728
1506,1.282,0.583,-272.284
1507,1.445,0.233,-127.008
1508,1.561,0.280,-28.822
1509,0.396,0.093,-27.331
1510,2.260,0.350,-102.846
1511,3.868,0.373,-245.349
1512,4.916,0.932,-383.774
1513,6.105,2.913,-388.714
1514,1.584,2.889,-281.627
1515,1.398,0.955,-141.524
1516,0.629,0.070,-32.014
1517,0.047,0.047,-17.428
1518,0.443,0.559,-99.677
1519,1.748,1.351,-247.446
1520,2.773,1.771,-369.445
1521,4.497,3.472,-404.861
1522,5.685,4.427,-339.807
1523,4.217,3.239,-201.032
1524,3.635,1.515,-71.158
1525,0.233,0.023,-14.003
1526,0.955,0.280,-51.400
1527,1.748,1.072,-155.970
1528,3.099,2.377,-298.543
1529,1.305,3.215,-387.619
1530,8.085,1.305,-347.054
1531,6.873,0.443,-238.592
1532,2.423,0.443,-114.403
1533,1.375,0.070,-30.337
1534,0.932,0.117,-30.640
1535,2.703,0.606,-117.805
1536,4.357,1.305,-248.005
1537,3.332,1.188,-356.979
1538,-2.586,0.210,-398.966
1539,-0.885,1.981,-335.217
1540,2.959,2.144,-186.423
1541,4.147,1.491,-62.467
1542,1.934,0.769,-45.086
1543,0.513,0.629,-84.532
1544,3.146,1.235,-169.414
1545,5.732,1.305,-289.479
1546,7.829,1.654,-338.922
1547,-0.210,3.612,-305.743
1548,1.491,1.934,-229.808
1549,0.373,1.095,-147.000
1550,0.652,0.466,-82.878
1551,0.489,0.233,-56.759
1552,0.652,0.489,-100.004
1553,3.728,1.445,-208.139
1554,7.806,2.656,-324.965
1555,13.001,3.006,-382.260
1556,5.219,0.629,-344.048
1557,1.025,0.163,-228.130
1558,-1.864,-0.396,-104.990
1559,-1.142,-0.210,-50.281
1560,1.235,0.396,-64.401
1561,1.468,1.002,-142.223
1562,-0.070,2.214,-244.464
1563,3.681,2.050,-294.186
1564,9.879,0.583,-300.477
1565,6.687,1.025,-264.711
1566,4.147,1.072,-190.664
1567,1.911,0.536,-97.767
1568,0.699,0.256,-60.673
1569,1.142,0.419,-92.175
1570,2.400,0.746,-174.074
1571,1.538,0.676,-292.881
1572,-0.652,0.652,-375.130
1573,3.821,2.190,-368.140
1574,5.639,1.957,-272.633
1575,3.495,0.816,-145.462
1576,1.515,0.233,-49.443
1577,0.979,0.093,-23.789
1578,2.167,0.373,-79.150
1579,0.862,1.282,-167.247
1580,2.447,2.214,-271.678
1581,4.846,1.981,-351.760
1582,2.703,2.027,-355.209
1583,3.006,1.631,-286.450
1584,2.120,0.746,-164.708
1585,-1.118,-0.186,-52.495
1586,-0.117,-0.093,-19.735
1587,1.072,0.303,-59.858
1588,2.167,1.118,-180.738
1589,3.728,3.472,-349.430
1590,5.522,6.547,-452.346
1591,6.477,5.406,-416.255
1592,2.493,1.305,-244.114
1593,3.845,-1.118,-46.926
1594,-1.328,0.350,-1.584
1595,0.163,0.350,-28.240
1596,0.466,1.188,-95.623
1597,1.002,2.633,-208.139
1598,8.225,2.330,-327.318
1599,9.343,2.144,-395.518
1600,4.753,2.377,-366.928
1601,2.074,1.584,-232.604
1602,3.052,0.955,-74.141
1603,0.606,0.117,-14.330
1604,0.117,0.023,-29.358
1605,2.283,0.536,-128.639
1606,5.196,0.280,-290.481
1607,5.732,-1.118,-425.738
1608,4.357,0.070,-446.405
1609,4.567,2.190,-296.260
1610,0.000,1.165,-86.629
1611,1.864,-0.559,-3.215
1612,-0.117,0.070,-20.085
1613,-0.210,0.699,-93.736
1614,2.819,0.909,-215.828
1615,2.330,1.724,-327.458
1616,4.800,2.004,-389.366
1617,6.617,1.678,-354.649
1618,4.357,0.676,-241.155
1619,-1.724,-0.350,-100.912
1620,-1.654,-0.326,-33.925
1621,0.722,0.350,-47.206
1622,1.561,1.561,-143.854
1623,2.889,3.868,-283.654
1624,5.522,5.312,-390.718
1625,3.425,3.798,-390.531
1626,1.981,1.887,-246.910
1627,8.528,-1.584,-89.216
1628,-1.282,0.443,-15.098
1629,-0.955,0.839,-43.548
1630,2.563,1.048,-131.645
1631,5.429,1.794,-251.757
1632,6.384,2.400,-365.694
1633,4.404,2.726,-395.354
1634,0.443,1.981,-300.593
1635,2.656,1.631,-138.099
1636,4.777,1.188,-49.163
1637,0.816,0.186,-46.134
1638,2.400,0.280,-106.085
1639,2.889,-0.373,-229.622
1640,4.660,-0.652,-360.241
1641,4.543,0.792,-403.463
1642,3.146,3.379,-298.193
1643,1.282,1.561,-132.367
1644,1.864,-0.326,-16.590
1645,-0.070,0.047,-15.425
1646,0.210,0.652,-95.483
1647,2.400,1.212,-231.695
1648,3.938,1.841,-362.525
1649,7.340,2.027,-410.127
1650,8.039,1.351,-343.139
1651,3.798,0.303,-201.941
1652,-4.520,-1.025,-69.294
1653,-0.722,-0.186,-31.898
1654,1.048,0.443,-58.786
1655,1.025,1.701,-162.098
1656,3.262,4.124,-301.222
1657,6.477,4.660,-396.706
1658,2.400,2.144,-359.193
1659,5.382,0.117,-213.708
1660,4.380,-0.629,-79.080
1661,-0.862,0.326,-17.522
1662,0.536,0.443,-50.468
1663,2.563,1.095,-150.541
1664,5.615,1.794,-287.079
1665,4.543,2.749,-392.232
1666,2.959,2.586,-370.353
1667,1.095,1.911,-241.388
1668,5.243,1.724,-103.545
1669,2.586,0.536,-56.130
1670,0.186,-0.047,-90.404
1671,1.771,-0.093,-179.923
1672,4.567,-0.117,-292.811
1673,4.543,0.140,-356.863
1674,4.450,2.423,-312.057
1675,1.911,2.377,-183.534
1676,0.070,0.909,-72.906
1677,1.118,-0.117,-34.251
1678,1.235,0.280,-90.124
1679,2.144,0.932,-200.310
1680,3.146,1.561,-315.202
1681,6.361,1.817,-375.270
1682,7.712,1.538,-338.479
1683,5.243,0.419,-233.163
1684,-2.260,-0.746,-105.200
1685,-2.819,-0.629,-51.819
1686,1.188,0.326,-63.376
1687,1.025,1.328,-146.720
1688,5.010,3.495,-276.944
1689,5.732,4.217,-375.759
1690,2.843,2.377,-362.478
1691,5.429,-0.955,-230.507
1692,3.728,-0.839,-99.631
1693,-0.373,0.186,-28.799
1694,-0.047,0.513,-48.977
1695,1.095,1.235,-139.800
1696,5.103,1.701,-262.148
1697,4.893,2.516,-370.656
1698,3.169,2.516,-375.759
1699,0.699,1.981,-256.999
1700,4.147,1.771,-115.475
1701,3.635,0.955,-58.483
1702,1.048,0.303,-70.599
1703,0.816,0.186,-158.790
1704,3.751,0.513,-282.582
1705,5.149,-0.210,-363.969
1706,4.916,1.491,-348.568
1707,1.375,3.518,-223.936
1708,0.816,1.305,-87.119
1709,1.165,-0.140,-17.312
1710,0.583,0.233,-50.002
1711,2.610,0.722,-159.954
1712,2.936,1.561,-293.906
1713,5.196,1.934,-387.036
1714,7.293,1.887,-375.363
1715,6.734,1.048,-275.476
1716,1.212,-0.023,-129.618
1717,-4.194,-0.979,-43.618
1718,1.095,0.117,-41.987
1719,0.629,0.536,-105.106
1720,2.633,2.633,-236.542
1721,5.895,4.311,-362.362
1722,5.336,3.472,-397.638
1723,3.588,-0.070,-291.786
1724,5.243,-1.258,-140.872
1725,0.513,-0.140,-38.841
1726,-0.559,0.350,-25.933
1727,0.629,0.816,-97.534
1728,3.425,1.538,-217.412
1729,5.802,2.144,-341.485
1730,4.264,2.726,-394.749
1731,1.864,2.074,-314.783
1732,1.515,1.445,-168.832
1733,5.219,1.351,-63.539
1734,1.351,0.303,-45.878
1735,1.515,0.117,-94.715
1736,1.771,-0.280,-215.875
1737,4.590,-0.326,-349.640
1738,4.660,0.676,-403.346
1739,3.728,3.262,-311.451
1740,1.025,1.957,-143.877
1741,1.794,-0.256,-19.316
1742,0.629,-0.163,-10.881
1743,0.326,0.536,-82.086
1744,2.377,1.142,-216.900
1745,2.819,1.911,-351.900
1746,5.708,2.074,-416.907
1747,5.942,1.794,-358.238
1748,3.588,1.118,-216.364
1749,-0.746,0.186,-75.725
1750,-0.326,-0.093,-14.912
1751,1.515,0.326,-36.395
1752,1.118,1.188,-142.992
1753,2.423,3.518,-294.396
1754,6.710,5.010,-411.245
1755,3.658,2.470,-393.630
1756,5.126,0.047,-238.382
1757,3.821,-0.583,-80.362
1758,-1.165,0.280,-7.782
1759,0.839,0.186,-38.282
1760,1.608,1.048,-133.346
1761,5.685,1.584,-267.204
1762,5.312,2.563,-385.499
1763,4.124,2.656,-388.178
1764,2.353,1.817,-279.344
1765,3.076,1.118,-139.707
1766,3.984,0.699,-40.635
1767,0.932,0.023,-27.424
1768,2.050,-0.256,-98.396
1769,3.309,-1.188,-237.753
1770,3.845,-1.258,-373.289
1771,5.802,1.048,-414.391
1772,5.429,1.351,-302.644
1773,-1.771,1.421,-151.101
1774,1.118,-0.140,-37.094
1775,-0.280,0.047,-11.906
1776,-0.489,0.583,-75.515
1777,1.584,1.142,-212.962
1778,3.728,1.771,-356.513
1779,5.289,1.911,-416.488
1780,6.198,2.097,-353.508
1781,2.913,1.445,-211.168
1782,0.280,0.652,-78.102
1783,0.443,0.117,-16.240
1784,0.606,0.419,-50.561
1785,0.769,1.724,-161.492
1786,3.518,3.938,-305.393
1787,5.778,4.147,-402.974
1788,2.283,2.283,-354.510
1789,6.850,0.140,-214.686
1790,3.146,-0.117,-82.459
1791,-0.093,0.070,-13.374
1792,0.885,0.210,-42.895
1793,3.425,0.816,-155.551
1794,5.359,1.841,-303.762
1795,5.848,2.610,-395.797
1796,4.217,1.841,-374.384
1797,2.004,0.769,-278.901
1798,0.583,0.000,-135.187
1799,0.373,-0.023,-22.718
1800,-0.722,-0.163,-15.331
1801,2.167,0.466,-89.472
1802,5.359,0.513,-235.586
1803,4.404,0.303,-394.422
1804,6.641,2.563,-431.819
1805,2.214,3.495,-313.548
1806,2.353,0.955,-144.367
1807,0.280,0.023,-15.658
1808,0.280,-0.093,-2.516
1809,-0.117,0.326,-50.584
1810,0.839,1.188,-194.695
1811,2.843,1.911,-360.521
1812,3.891,2.796,-439.764
1813,6.477,4.404,-400.644
1814,4.753,3.588,-255.508
1815,4.101,1.841,-89.728
1816,-0.210,-0.070,-8.178
1817,1.351,0.256,-27.517
1818,1.095,0.652,-112.283
1819,2.330,2.050,-249.217
1820,3.542,3.332,-379.720
1821,3.845,2.074,-380.745
1822,8.714,0.140,-285.914
1823,3.495,0.489,-159.605
1824,1.351,0.140,-50.864
1825,0.489,0.000,-14.073
1826,1.981,0.326,-70.180
1827,3.775,1.095,-194.788
1828,4.031,1.631,-323.847
1829,1.771,1.048,-400.830
1830,-3.658,0.955,-385.755
1831,2.214,2.563,-256.417
1832,4.031,1.724,-95.157
1833,3.052,0.932,-40.146
1834,0.326,0.419,-61.512
1835,2.866,0.955,-127.591
1836,3.658,0.979,-247.213
1837,8.295,1.328,-344.071
1838,2.470,3.309,-332.421
1839,1.025,2.703,-266.086
1840,0.792,1.351,-175.006
1841,0.396,0.583,-95.320
1842,0.606,0.210,-53.776
1843,0.373,0.326,-77.379
1844,1.771,1.025,-168.902
1845,5.872,2.283,-291.739
1846,12.069,3.542,-374.687
1847,9.273,1.701,-370.493
1848,2.283,0.303,-278.528
1849,-0.513,0.000,-149.470
1850,-2.190,-0.489,-62.397
1851,0.583,0.210,-55.011
1852,1.445,0.676,-107.436
1853,0.419,1.701,-212.380
1854,1.608,2.377,-280.649
1855,8.295,1.142,-304.182
1856,8.225,0.746,-278.831
1857,4.660,1.142,-220.907
1858,3.029,0.792,-133.556
1859,1.305,0.350,-66.452
1860,1.305,0.350,-75.632
1861,1.584,0.559,-142.829
1862,1.887,0.652,-254.110
1863,-0.536,0.443,-354.323
1864,1.095,1.678,-378.089
1865,5.336,2.516,-307.793
1866,4.637,1.515,-179.154
1867,2.190,0.513,-70.319
1868,0.885,0.140,-26.422
1869,2.214,0.350,-64.238
1870,1.911,0.955,-152.126
1871,1.468,2.214,-249.613
1872,4.963,1.981,-336.056
1873,2.796,2.074,-354.859
1874,2.610,1.748,-300.430
1875,2.493,1.002,-191.037
1876,-0.676,-0.023,-67.803
1877,-0.326,-0.117,-15.634
1878,0.932,0.233,-46.344
1879,2.097,0.932,-157.858
1880,4.008,2.843,-325.058
1881,4.940,5.848,-448.245
1882,6.408,6.011,-437.504
1883,2.889,2.377,-286.497
1884,4.054,-1.072,-71.461
1885,-0.979,0.210,0.093
1886,0.140,0.210,-20.131
1887,0.652,0.955,-82.435
1888,0.839,2.307,-187.146
1889,6.338,2.563,-310.403
1890,10.112,1.981,-385.102
1891,5.359,2.353,-377.553
1892,2.610,1.748,-261.939
1893,2.633,1.002,-100.143
1894,1.398,0.326,-22.088
1895,-0.023,0.023,-28.449
1896,2.260,0.536,-113.914
1897,5.429,0.373,-266.342
1898,5.592,-1.351,-407.028
1899,3.984,-0.606,-444.517
1900,4.450,2.190,-323.474
1901,1.328,1.305,-117.828
1902,1.142,-0.280,-8.388
1903,0.513,-0.140,-16.706
1904,-0.839,0.699,-83.251
1905,2.563,0.769,-198.842
1906,2.540,1.538,-314.107
1907,4.613,1.911,-385.102
1908,7.060,1.748,-365.134
1909,5.476,0.652,-262.242
1910,-1.351,-0.489,-122.908
1911,-3.029,-0.559,-49.163
1912,0.652,0.326,-52.728
1913,0.769,1.305,-128.010
1914,2.703,3.751,-257.582
1915,5.708,5.336,-365.437
1916,4.054,3.751,-384.823
1917,1.841,1.817,-266.645
1918,8.341,-1.305,-116.989
1919,-0.163,0.256,-28.845
1920,-1.957,1.048,-39.354
1921,2.447,1.025,-123.141
1922,5.732,1.608,-245.466
1923,6.547,2.377,-364.598
1924,5.056,2.773,-401.133
1925,1.351,1.864,-317.183
1926,1.165,1.212,-156.832
1927,4.777,1.118,-41.824
1928,0.466,0.023,-23.976
1929,1.072,0.023,-75.003
1930,3.961,-0.070,-204.458
1931,4.940,-0.792,-355.302
1932,4.357,0.513,-436.479
1933,4.986,2.959,-350.269
1934,1.025,1.724,-171.698
1935,2.144,-0.303,-27.028
1936,-0.256,0.023,-5.872
1937,-0.583,0.419,-54.662
1938,1.165,1.002,-173.865
1939,3.402,1.654,-320.888
1940,6.850,1.981,-410.499
1941,8.551,1.654,-389.087
1942,5.732,0.629,-271.701
1943,-3.099,-0.652,-114.170
1944,-2.749,-0.489,-36.092
1945,1.328,0.443,-42.779
1946,0.629,1.235,-115.545
1947,2.423,3.355,-244.370
1948,6.105,4.567,-362.781
1949,2.726,2.796,-379.277
1950,4.590,1.165,-266.762
1951,5.639,-0.233,-136.771
1952,1.282,0.023,-41.288
1953,0.186,0.163,-23.533
1954,2.353,0.536,-105.735
1955,4.777,1.445,-246.654
1956,5.545,2.447,-369.095
1957,4.590,2.283,-384.077
1958,2.516,1.375,-310.403
1959,1.584,0.513,-187.938
1960,1.118,0.140,-63.353
1961,0.419,0.047,-15.168
1962,1.072,0.140,-59.555
1963,4.520,0.210,-183.231
1964,4.147,-0.396,-348.801
1965,5.173,1.398,-434.988
1966,3.891,3.542,-351.154
1967,2.353,1.584,-186.913
1968,1.142,0.047,-37.443
1969,0.443,-0.140,-2.540
1970,-0.233,0.326,-45.831
1971,0.513,1.095,-170.649
1972,2.749,1.817,-332.468
1973,4.101,2.097,-426.041
1974,5.778,3.215,-397.265
1975,4.637,3.146,-274.194
1976,3.425,1.864,-110.955
1977,0.186,0.093,-12.326
1978,1.235,0.210,-20.784
1979,0.932,0.629,-101.215
1980,1.794,2.167,-241.947
1981,5.243,3.705,-381.072
1982,2.563,2.400,-395.657
1983,8.225,0.023,-293.091
1984,3.705,0.326,-158.393
1985,1.305,0.023,-40.169
1986,0.140,0.000,-10.299
1987,1.934,0.350,-76.634
1988,4.031,1.328,-224.449
1989,6.035,2.050,-352.925
1990,3.984,1.351,-397.778
1991,0.443,0.373,-359.006
1992,0.233,0.256,-238.988
1993,1.375,0.373,-91.895
1994,0.769,0.210,-19.852
1995,-0.326,0.210,-45.062
1996,2.773,1.142,-131.878
1997,5.266,1.445,-269.674
1998,7.596,1.584,-386.454
1999,3.845,3.379,-370.703
2000,1.212,2.726,-274.404
2001,0.722,1.165,-149.586
2002,0.000,0.280,-46.437
2003,-0.023,-0.023,-9.600
2004,0.256,0.373,-71.415
2005,2.633,1.142,-212.310
2006,3.658,2.214,-355.698
2007,8.225,4.031,-427.252
2008,7.596,4.124,-388.761
2009,3.099,2.353,-249.194
2010,1.305,0.955,-88.657
2011,-0.117,-0.047,-10.555
2012,2.167,0.373,-26.912
2013,1.282,0.373,-103.522
2014,0.979,1.491,-244.883
2015,0.629,3.146,-351.294
2016,9.320,1.328,-357.538
2017,7.712,0.769,-287.639
2018,4.217,0.839,-180.645
2019,1.864,0.326,-65.776
2020,0.652,0.093,-24.954
2021,1.608,0.396,-77.007
2022,2.703,0.816,-186.097
2023,2.610,0.839,-307.653
2024,-1.282,0.256,-389.879
2025,-0.303,1.748,-374.478
2026,3.658,2.563,-245.093
2027,3.379,1.468,-95.157
2028,2.493,0.816,-39.167
2029,-0.070,0.280,-51.912
2030,1.701,0.792,-120.834
2031,5.988,1.142,-235.889
2032,6.524,1.491,-310.706
2033,0.652,3.402,-333.190
2034,1.561,2.377,-293.906
2035,1.817,1.398,-213.381
2036,0.513,0.466,-107.926
2037,0.210,0.093,-34.880
2038,0.466,0.233,-55.710
2039,1.771,0.979,-149.493
2040,5.452,2.470,-279.157
2041,10.299,3.868,-382.679
2042,7.153,2.703,-396.869
2043,1.398,1.188,-301.292
2044,-1.282,0.583,-154.013
2045,0.280,0.396,-49.606
2046,0.513,0.210,-28.799
2047,0.350,0.443,-59.182
2048,0.699,1.235,-139.800
2049,1.538,2.703,-253.784
2050,10.998,1.515,-348.452
2051,9.972,1.678,-381.701
2052,6.175,2.050,-320.119
2053,2.703,0.885,-176.637
2054,-1.538,-0.210,-49.722
2055,0.256,0.000,-9.437
2056,1.048,0.303,-45.994
2057,3.868,0.955,-165.314
2058,6.268,0.186,-332.817
2059,4.590,-1.864,-444.657
2060,3.845,-0.816,-425.225
2061,3.542,1.351,-266.762
2062,-0.117,1.165,-61.419
2063,2.190,-0.769,-1.468
2064,0.699,-0.186,-24.139
2065,-0.023,0.536,-101.798
2066,2.050,1.048,-216.970
2067,3.542,1.375,-322.146
2068,3.448,1.724,-363.620
2069,4.311,1.794,-331.233
2070,4.823,0.979,-238.778
2071,-0.466,-0.326,-122.977
2072,-2.190,-0.513,-56.689
2073,-0.047,0.186,-68.036
2074,1.654,1.445,-154.199
2075,3.681,3.542,-278.412
2076,5.592,5.336,-365.111
2077,5.406,4.147,-362.548
2078,2.330,0.699,-248.867
2079,4.590,-1.212,-91.289
2080,0.093,0.000,-17.382
2081,-1.095,0.839,-38.958
2082,0.419,1.421,-112.586
2083,2.703,2.470,-233.163
2084,8.481,2.237,-346.331
2085,5.988,2.633,-402.787
2086,2.586,2.353,-343.023
2087,1.048,1.678,-188.777
2088,5.312,1.445,-58.530
2089,0.443,0.233,-28.915
2090,0.792,0.326,-58.926
2091,4.054,0.722,-166.875
2092,4.217,-0.443,-312.872
2093,4.683,-0.652,-414.577
2094,4.497,1.584,-390.741
2095,1.351,3.332,-227.478
2096,0.722,0.839,-59.462
2097,1.491,-0.443,-4.334
2098,0.000,0.256,-40.519
2099,1.934,0.699,-140.965
2100,2.982,1.398,-270.723
2101,4.194,1.911,-374.408
2102,7.060,1.957,-389.716
2103,7.153,1.258,-307.677
2104,3.146,0.280,-165.174
2105,-4.357,-1.025,-52.751
2106,0.140,-0.070,-37.769
2107,0.979,0.396,-82.435
2108,1.282,1.911,-200.403
2109,5.429,4.264,-336.475
2110,6.314,4.147,-404.721
2111,2.679,0.979,-331.769
2112,6.058,-1.282,-175.799
2113,1.445,-0.350,-52.472
2114,-1.165,0.443,-19.013
2115,0.769,0.559,-73.651
2116,2.260,1.398,-180.808
2117,5.708,1.957,-306.581
2118,4.404,2.726,-392.838
2119,1.654,2.377,-347.054
2120,1.584,1.981,-203.362
2121,5.615,1.748,-88.074
2122,2.167,0.606,-61.629
2123,0.559,0.210,-105.712
2124,2.027,0.350,-212.846
2125,5.219,0.186,-314.107
2126,4.101,-0.280,-354.416
2127,4.264,2.726,-294.046
2128,1.095,2.679,-165.663
2129,0.583,0.862,-65.823
2130,0.722,0.093,-39.563
2131,1.538,0.303,-95.483
2132,2.843,0.932,-208.372
2133,3.845,1.538,-323.218
2134,6.827,1.724,-373.336
2135,7.736,1.491,-326.014
2136,5.406,0.326,-217.412
2137,-2.074,-0.839,-103.475
2138,-3.588,-0.862,-65.007
2139,1.002,0.373,-85.441
2140,2.004,1.538,-165.383
2141,5.312,2.959,-281.674
2142,5.429,3.751,-357.748
2143,3.192,2.004,-334.332
2144,3.542,-0.979,-216.108
2145,3.845,-1.072,-103.033
2146,0.256,0.023,-49.000
2147,0.303,0.466,-66.219
2148,1.375,1.142,-147.489
2149,4.730,1.678,-264.175
2150,4.334,2.493,-363.154
2151,2.586,2.377,-355.069
2152,0.816,1.887,-233.000
2153,4.031,1.701,-107.856
2154,3.192,0.979,-65.263
2155,1.445,0.536,-87.212
2156,2.120,0.699,-188.847
2157,5.126,0.606,-303.203
2158,3.658,-1.212,-356.327
2159,4.334,1.771,-322.099
2160,1.421,3.635,-205.925
2161,1.351,1.305,-91.895
2162,0.792,0.186,-38.165
2163,1.048,0.140,-64.821
2164,2.773,0.583,-161.702
2165,2.936,1.375,-286.474
2166,5.825,1.678,-370.423
2167,7.712,1.771,-359.030
2168,7.526,0.885,-264.688
2169,1.631,-0.233,-135.676
2170,-4.637,-1.188,-62.258
2171,0.023,-0.093,-65.007
2172,0.419,0.536,-120.438
2173,4.683,2.540,-237.241
2174,5.010,3.146,-347.776
2175,5.732,3.192,-373.429
2176,1.911,-0.163,-284.470
2177,4.613,-1.235,-152.732
2178,1.025,-0.256,-59.625
2179,0.070,0.210,-34.041
2180,0.513,0.769,-91.639
2181,3.332,1.398,-210.539
2182,5.126,2.190,-340.483
2183,3.751,2.703,-397.218
2184,1.445,2.260,-315.412
2185,2.260,1.817,-172.467
2186,6.175,1.561,-75.702
2187,1.095,0.280,-66.405
2188,0.373,-0.047,-138.635
2189,3.029,0.093,-248.495
2190,5.149,-0.186,-335.147
2191,4.520,1.048,-345.096
2192,2.377,3.215,-244.394
2193,1.421,1.468,-115.382
2194,0.489,0.233,-35.206
2195,0.559,0.140,-48.627
2196,2.516,0.489,-146.044
2197,2.633,1.305,-269.371
2198,4.683,1.771,-365.507
2199,7.293,1.864,-375.643
2200,7.083,0.955,-295.840
2201,1.538,-0.117,-158.790
2202,-4.916,-1.118,-59.462
2203,0.722,0.093,-43.361
2204,0.676,0.536,-87.515
2205,2.377,2.423,-206.531
2206,5.452,4.311,-338.526
2207,5.848,3.914,-398.337
2208,2.749,0.816,-316.065
2209,4.823,-0.816,-161.283
2210,1.911,-0.443,-41.777
2211,-1.048,0.373,-13.514
2212,1.282,0.489,-78.544
2213,2.563,1.538,-198.376
2214,6.244,2.050,-330.417
2215,4.777,2.819,-407.098
2216,2.330,2.307,-345.935
2217,1.328,1.608,-195.138
2218,5.615,1.491,-71.065
2219,1.515,0.326,-38.725
2220,0.839,0.070,-75.772
2221,1.911,-0.210,-192.225
2222,4.520,-0.466,-331.792
2223,4.520,0.256,-405.723
2224,4.078,3.146,-338.619
2225,2.097,2.050,-174.797
2226,1.584,-0.023,-33.948
2227,1.048,-0.326,-5.615
2228,-0.210,0.419,-57.598
2229,1.561,1.072,-184.559
2230,2.470,1.841,-331.209
2231,5.429,2.120,-423.757
2232,6.151,1.957,-388.411
2233,4.730,1.375,-253.271
2234,-0.466,0.303,-97.977
2235,-0.909,-0.186,-17.009
2236,1.515,0.280,-20.411
2237,0.955,0.792,-102.870
2238,1.748,2.843,-251.011
2239,5.825,4.940,-389.576
2240,4.800,3.262,-418.981
2241,4.497,0.629,-287.545
2242,4.590,-0.443,-119.249
2243,-0.210,0.070,-13.421
2244,0.303,0.093,-18.780
2245,1.421,0.606,-91.406
2246,4.171,1.398,-219.090
2247,5.639,2.260,-356.653
2248,4.334,2.796,-403.975
2249,2.703,2.190,-318.115
2250,2.819,1.421,-179.829
2251,4.800,0.979,-61.559
2252,0.606,0.023,-31.152
2253,1.491,-0.186,-82.016
2254,3.588,-0.792,-204.574
2255,3.821,-1.305,-336.126
2256,4.683,0.466,-395.844
2257,7.107,1.305,-314.643
2258,-1.398,1.608,-175.239
2259,0.326,0.233,-64.634
2260,0.443,-0.070,-22.275
2261,-0.606,0.466,-64.122
2262,1.165,0.955,-180.948
2263,3.565,1.515,-320.701
2264,6.244,1.864,-400.061
2265,7.549,1.654,-369.701
2266,4.846,0.862,-251.687
2267,-2.447,-0.280,-108.718
2268,-1.515,-0.186,-35.719
2269,0.909,0.419,-43.967
2270,0.443,1.445,-127.964
2271,3.215,3.798,-264.968
2272,6.105,4.520,-378.485
2273,2.307,2.633,-373.546
2274,5.359,0.979,-250.871
2275,5.149,-0.210,-120.018
2276,0.885,0.023,-31.012
2277,0.536,0.163,-28.193
2278,2.423,0.676,-119.599
2279,4.963,1.561,-262.614
2280,5.452,2.540,-377.483
2281,4.497,2.260,-381.025
2282,2.586,1.305,-302.248
2283,1.864,0.419,-176.498
2284,0.629,0.023,-51.726
2285,-0.070,-0.047,-12.512
2286,1.515,0.256,-63.469
2287,4.916,0.210,-195.138
2288,3.588,-0.443,-361.686
2289,5.522,1.794,-434.498
2290,3.542,3.705,-341.974
2291,2.656,1.375,-176.847
2292,0.489,0.117,-29.894
2293,0.652,-0.186,-1.957
2294,-0.210,0.303,-42.756
2295,0.583,1.072,-172.770
2296,2.679,1.841,-339.155
2297,3.938,2.214,-431.959
2298,6.058,3.542,-402.950
2299,4.823,3.285,-272.843
2300,3.518,1.841,-105.083
2301,0.070,0.047,-10.881
2302,1.212,0.210,-21.949
2303,0.839,0.606,-101.495
2304,1.864,2.167,-239.827
2305,5.056,3.612,-376.272
2306,2.563,2.330,-389.483
2307,8.341,0.070,-291.856
2308,3.798,0.373,-162.028
2309,1.258,0.070,-45.039
2310,0.256,-0.023,-10.136
2311,1.864,0.326,-73.395
2312,3.961,1.282,-217.319
2313,5.965,2.004,-345.213
2314,3.845,1.305,-395.052
2315,0.373,0.396,-363.760
2316,0.326,0.326,-247.959
2317,1.351,0.419,-99.211
2318,1.095,0.280,-19.246
2319,-0.606,0.140,-38.119
2320,2.074,1.072,-118.434
2321,5.312,1.631,-254.483
2322,7.270,1.678,-380.652
2323,4.590,3.309,-376.318
2324,1.351,2.889,-286.427
2325,0.839,1.258,-159.722
2326,0.023,0.350,-51.610
2327,-0.023,-0.023,-9.693
2328,0.186,0.326,-62.561
2329,2.493,1.072,-197.840
2330,3.285,2.027,-342.627
2331,7.293,3.938,-425.132
2332,7.270,4.497,-399.432
2333,3.612,2.959,-267.810
2334,1.981,1.421,-111.025
2335,0.256,0.140,-17.918
2336,1.957,0.303,-21.133
2337,1.538,0.303,-86.327
2338,0.955,1.235,-220.977
2339,0.419,3.076,-338.502
2340,8.411,1.654,-363.270
2341,8.738,0.722,-305.719
2342,4.660,0.932,-204.830
2343,2.330,0.443,-87.375
2344,0.280,0.047,-22.834
2345,1.375,0.303,-57.271
2346,2.749,0.769,-163.380
2347,2.936,0.839,-295.025
2348,0.047,0.303,-399.688
2349,1.468,1.375,-405.769
2350,4.194,2.027,-294.186
2351,2.936,1.048,-126.799
2352,1.375,0.350,-25.980
2353,0.280,0.023,-20.061
2354,2.516,0.583,-87.282
2355,4.194,1.212,-201.615
2356,3.821,1.794,-291.600
2357,3.612,2.050,-344.211
2358,1.398,2.260,-326.759
2359,2.144,1.538,-252.362
2360,1.584,0.722,-141.781
2361,-0.816,-0.070,-37.303
2362,0.280,0.000,-14.819
2363,0.932,0.350,-76.564
2364,2.703,1.375,-216.550
2365,5.452,3.495,-378.369
2366,5.615,5.872,-461.876
2367,5.196,5.079,-399.991
2368,2.050,1.934,-227.408
2369,1.911,-0.583,-36.045
2370,-0.885,0.210,0.955
2371,0.629,0.163,-23.976
2372,0.909,1.095,-90.404
2373,0.559,2.819,-199.774
2374,6.827,2.889,-322.379
2375,11.417,1.724,-384.287
2376,5.848,2.144,-364.412
2377,3.076,1.608,-246.607
2378,2.563,0.839,-88.610
2379,0.909,0.186,-16.893
2380,-0.280,-0.023,-26.609
2381,1.981,0.629,-119.180
2382,6.151,0.676,-275.942
2383,5.359,-1.445,-411.129
2384,3.938,-1.072,-436.922
2385,3.984,1.491,-318.208
2386,1.235,1.445,-109.603
2387,1.305,-0.326,-6.990
2388,1.305,-0.443,-12.512
2389,-0.117,0.303,-74.793
2390,1.678,0.769,-188.753
2391,2.400,1.515,-313.129
2392,3.332,1.957,-381.374
2393,5.778,1.911,-366.253
2394,5.592,1.002,-265.317
2395,0.117,-0.210,-127.801
2396,-2.959,-0.652,-42.453
2397,0.256,0.047,-35.812
2398,0.722,0.816,-106.900
2399,2.283,3.006,-247.539
2400,5.079,5.639,-372.614
2401,6.105,4.893,-408.542
2402,1.165,2.237,-302.690
2403,6.198,-0.862,-124.748
2404,2.120,-0.583,-17.731
2405,-1.841,0.839,-23.906
2406,-0.186,1.328,-89.985
2407,3.076,2.120,-205.483
2408,8.528,2.050,-326.153
2409,6.058,2.679,-400.294
2410,3.239,2.423,-360.521
2411,0.466,1.584,-220.535
2412,4.404,1.375,-72.347
2413,1.468,0.373,-27.051
2414,0.606,0.186,-45.528
2415,3.518,0.489,-145.718
2416,4.474,-0.513,-295.677
2417,4.427,-0.792,-412.969
2418,4.427,1.817,-404.884
2419,2.633,3.052,-247.469
2420,0.583,0.816,-68.083
2421,1.701,-0.513,-1.841
2422,-0.536,0.233,-22.857
2423,1.328,0.629,-121.160
2424,2.633,1.375,-264.455
2425,4.008,2.004,-386.361
2426,6.710,2.050,-412.130
2427,6.897,1.445,-323.730
2428,2.330,0.466,-168.016
2429,-3.518,-0.676,-46.786
2430,0.583,0.047,-17.079
2431,1.165,0.396,-56.316
2432,1.118,1.748,-182.159
2433,3.658,4.427,-335.427
2434,6.734,4.707,-425.109
2435,3.052,1.701,-359.542
2436,5.429,-0.140,-193.553
2437,3.285,-0.606,-50.817
2438,-1.398,0.373,-7.969
2439,0.885,0.350,-54.708
2440,2.447,1.212,-162.751
2441,6.081,1.817,-302.737
2442,4.777,2.773,-401.389
2443,3.052,2.493,-365.018
2444,1.608,1.748,-233.536
2445,4.986,1.445,-98.419
2446,1.911,0.373,-47.183
2447,0.489,-0.093,-82.342
2448,2.493,-0.256,-180.272
2449,4.823,-0.629,-299.405
2450,3.914,-0.093,-367.604
2451,4.823,2.330,-318.977
2452,2.982,1.468,-184.653
2453,-1.002,0.955,-68.665
2454,1.468,-0.280,-27.354
2455,-0.093,0.489,-79.476
2456,1.491,1.025,-193.041
2457,3.029,1.608,-320.701
2458,6.244,1.887,-392.023
2459,7.503,1.631,-357.329
2460,5.452,0.699,-243.392
2461,-2.214,-0.489,-103.266
2462,-2.423,-0.466,-38.725
2463,1.142,0.303,-43.594
2464,0.583,1.165,-125.447
2465,2.493,3.565,-264.991
2466,6.571,5.010,-382.982
2467,3.565,2.773,-389.529
2468,3.868,0.839,-259.865
2469,5.126,-0.536,-114.962
2470,1.072,-0.140,-26.166
2471,-0.256,0.373,-29.475
2472,1.864,0.839,-114.729
2473,5.033,1.584,-252.619
2474,5.196,2.586,-379.767
2475,3.775,2.726,-394.446
2476,1.724,2.050,-292.298
2477,3.379,1.515,-150.937
2478,4.194,0.862,-56.130
2479,0.000,-0.117,-60.231
2480,1.748,-0.163,-136.025
2481,4.124,-0.466,-258.770
2482,4.217,-0.326,-357.282
2483,4.520,2.050,-356.187
2484,4.124,2.144,-239.105
2485,-0.186,1.235,-110.931
2486,2.190,-0.373,-31.572
2487,-0.419,0.280,-44.666
2488,0.652,0.769,-139.800
2489,2.307,1.445,-275.383
2490,5.662,1.817,-383.425
2491,7.642,1.817,-394.446
2492,6.664,0.885,-309.680
2493,-0.816,-0.117,-163.030
2494,-3.402,-0.466,-55.617
2495,0.652,0.186,-28.356
2496,0.419,0.769,-76.564
2497,1.748,2.843,-200.730
2498,5.545,4.777,-338.479
2499,4.543,3.681,-402.065
2500,2.516,2.237,-315.272
2501,6.804,0.047,-176.614
2502,2.773,-0.117,-61.023
2503,-0.186,0.140,-13.677
2504,1.608,0.256,-62.491
2505,3.775,1.072,-186.167
2506,5.382,2.074,-328.880
2507,4.916,2.633,-394.492
2508,3.588,2.004,-344.724
2509,2.656,1.002,-235.913
2510,1.748,0.256,-104.407
2511,1.468,0.163,-19.386
2512,0.513,-0.047,-29.544
2513,3.006,-0.047,-126.356
2514,4.124,-0.792,-287.406
2515,3.518,0.023,-414.926
2516,4.520,3.355,-393.980
2517,3.775,1.981,-242.367
2518,2.004,0.140,-75.655
2519,0.443,-0.163,-3.355
2520,-0.210,0.163,-28.053
2521,0.023,0.839,-124.445
2522,1.235,1.631,-272.284
2523,4.171,1.934,-399.478
2524,4.380,2.330,-413.319
2525,4.730,2.982,-318.791
2526,2.843,2.167,-164.475
2527,2.540,0.862,-35.323
2528,0.280,-0.023,-9.227
2529,0.303,0.396,-67.640
2530,1.072,2.050,-200.264
2531,5.219,4.101,-348.428
2532,3.775,3.262,-410.033
2533,5.802,0.839,-320.375
2534,5.126,0.070,-179.829
2535,1.584,0.023,-53.497
2536,0.023,0.000,-7.573
2537,1.375,0.256,-56.736
2538,3.798,1.002,-187.821
2539,4.730,2.190,-336.196
2540,5.266,2.586,-400.224
2541,3.658,1.654,-368.490
2542,2.260,0.536,-262.125
2543,0.909,-0.047,-113.378
2544,1.048,0.117,-19.549
2545,0.023,0.000,-25.607
2546,2.913,0.326,-112.679
2547,4.101,0.093,-269.301
2548,4.520,0.885,-401.552
2549,5.406,3.332,-388.458
2550,2.400,2.516,-266.179
2551,1.445,0.606,-110.931
2552,0.163,-0.023,-9.530
2553,0.070,0.047,-12.862
2554,0.303,0.629,-101.285
2555,1.817,1.515,-265.900
2556,3.448,1.934,-402.927
2557,4.777,3.588,-433.660
2558,5.406,4.404,-345.329
2559,3.961,2.982,-182.928
2560,3.052,1.072,-44.503
2561,-0.140,-0.117,-7.200
2562,1.258,0.373,-55.477
2563,1.375,1.258,-169.135
2564,4.031,2.913,-316.344
2565,1.748,3.029,-388.714
2566,7.875,0.885,-336.312
2567,6.431,0.373,-225.684
2568,2.377,0.373,-104.268
2569,0.699,0.047,-23.207
2570,0.769,0.070,-24.325
2571,2.773,0.676,-122.908
2572,5.359,1.538,-271.701
2573,4.427,1.328,-384.660
2574,0.629,0.419,-419.050
2575,0.140,0.676,-343.628
2576,2.074,1.002,-188.054
2577,2.610,0.676,-45.621
2578,0.023,0.093,-17.615
2579,-0.536,0.303,-55.431
2580,2.190,1.282,-142.293
2581,5.825,1.748,-277.177
2582,7.992,1.911,-361.197
2583,1.258,3.728,-345.586
2584,1.957,2.307,-269.488
2585,1.165,1.235,-166.758
2586,0.722,0.419,-70.133
2587,0.093,-0.023,-11.650
2588,0.186,0.140,-44.783
2589,1.794,0.862,-164.871
2590,4.590,2.144,-321.889
2591,9.180,3.891,-426.786
2592,7.456,3.612,-417.769
2593,2.260,2.004,-291.227
2594,0.792,1.048,-124.236
2595,0.233,0.117,-18.221
2596,0.885,0.140,-13.957
2597,0.233,0.303,-78.032
2598,0.280,1.468,-191.386
2599,1.118,3.215,-285.751
2600,9.553,1.701,-335.613
2601,9.250,0.955,-314.969
2602,4.520,1.375,-253.085
2603,2.656,0.909,-150.565
2604,1.258,0.256,-44.829
2605,0.559,0.047,-15.005
2606,1.678,0.419,-78.195
2607,3.565,0.885,-214.290
2608,5.639,0.280,-376.621
2609,4.870,-1.445,-462.715
2610,3.775,-0.816,-402.857
2611,3.215,0.419,-231.905
2612,0.373,0.583,-43.897
2613,0.955,-0.373,0.909
2614,0.326,-0.070,-22.321
2615,0.210,0.419,-93.200
2616,2.283,0.885,-204.388
2617,4.031,1.398,-318.418
2618,3.052,2.050,-374.361
2619,2.796,1.957,-340.646
2620,4.357,1.328,-236.681
2621,0.210,0.023,-121.183
2622,-2.377,-0.559,-46.437
2623,0.606,0.140,-47.206
2624,0.606,0.932,-137.610
2625,2.843,3.262,-277.853
2626,5.569,5.988,-379.510
2627,5.545,5.452,-384.124
2628,2.237,2.563,-283.421
2629,3.868,-0.676,-110.465
2630,0.117,-0.023,-13.025
2631,0.023,0.419,-26.096
2632,0.885,1.188,-91.336
2633,-0.419,3.355,-198.563
2634,8.877,2.749,-322.006
2635,10.205,2.214,-392.139
2636,4.753,2.330,-367.371
2637,1.794,1.701,-235.190
2638,3.681,1.165,-80.222
2639,0.979,0.210,-15.168
2640,-0.303,-0.117,-16.357
2641,1.748,0.443,-102.334
2642,5.243,0.513,-266.762
2643,6.175,-1.165,-420.728
2644,4.287,-0.536,-461.224
2645,4.660,2.330,-329.975
2646,1.002,1.375,-116.780
2647,0.885,-0.186,-6.990
2648,0.746,-0.256,-11.464
2649,-0.606,0.513,-68.432
2650,2.050,0.746,-179.107
2651,2.679,1.351,-297.727
2652,4.241,1.817,-376.505
2653,6.897,1.817,-371.868
2654,6.291,0.816,-281.208
2655,-0.070,-0.350,-144.600
2656,-3.821,-0.746,-57.504
2657,0.676,0.256,-49.559
2658,0.606,1.002,-111.630
2659,2.679,3.262,-236.495
2660,5.592,5.079,-353.694
2661,5.149,3.728,-386.337
2662,2.097,1.188,-284.283
2663,5.825,-0.769,-133.532
2664,2.516,-0.513,-36.954
2665,-1.142,0.699,-34.950
2666,0.256,1.258,-110.372
2667,4.078,1.841,-226.243
2668,6.850,2.214,-347.310
2669,4.800,2.796,-399.688
2670,1.328,2.144,-324.965
2671,1.724,1.584,-166.269
2672,5.266,1.351,-59.625
2673,0.862,0.210,-42.033
2674,1.398,0.163,-96.788
2675,2.283,-0.163,-225.730
2676,5.173,-0.256,-355.092
2677,4.777,0.722,-399.642
2678,3.285,3.402,-302.201
2679,1.864,1.608,-138.286
2680,1.188,-0.093,-18.873
2681,0.280,-0.070,-11.557
2682,0.303,0.606,-89.635
2683,2.633,1.165,-228.363
2684,3.518,1.887,-363.131
2685,6.780,2.074,-418.748
2686,7.759,1.538,-355.442
2687,3.751,0.513,-211.541
2688,-3.775,-0.722,-72.463
2689,-0.419,-0.140,-22.485
2690,1.118,0.303,-40.845
2691,1.002,1.375,-144.274
2692,2.796,3.891,-297.122
2693,6.804,4.963,-409.521
2694,2.959,2.377,-385.196
2695,5.056,0.373,-235.936
2696,4.637,-0.652,-85.371
2697,-0.652,0.186,-11.324
2698,0.466,0.256,-35.206
2699,2.167,0.885,-130.457
2700,5.196,1.678,-269.930
2701,4.870,2.656,-386.151
2702,3.495,2.633,-381.514
2703,1.445,1.911,-267.158
2704,4.194,1.538,-126.612
2705,3.169,0.629,-53.310
2706,0.163,-0.093,-73.581
2707,2.097,-0.163,-156.320
2708,4.590,-0.513,-270.257
2709,4.078,-0.350,-348.079
2710,4.613,1.957,-327.831
2711,4.543,1.515,-210.749
2712,-1.748,1.468,-97.580
2713,0.466,0.140,-46.833
2714,1.095,0.186,-79.383
2715,1.421,0.769,-168.832
2716,2.819,1.282,-277.317
2717,5.545,1.538,-346.634
2718,7.083,1.608,-335.171
2719,6.291,0.629,-258.980
2720,0.070,-0.396,-142.806
2721,-3.821,-0.885,-70.902
2722,0.862,0.210,-66.941
2723,1.678,1.072,-128.453
2724,4.753,2.447,-248.075
2725,4.683,3.565,-346.285
2726,4.753,2.936,-355.442
2727,2.493,-0.466,-257.069
2728,4.287,-1.142,-132.228
2729,0.909,-0.163,-54.802
2730,0.070,0.350,-45.458
2731,0.769,0.932,-110.279
2732,3.612,1.561,-223.866
2733,4.823,2.283,-338.479
2734,3.169,2.586,-377.949
2735,0.186,2.190,-287.219
2736,3.495,2.004,-146.510
2737,5.196,1.515,-75.748
2738,1.468,0.536,-75.445
2739,1.282,0.466,-146.743
2740,4.217,0.769,-259.842
2741,4.287,-0.862,-333.563
2742,4.101,0.443,-331.885
2743,2.307,3.565,-241.924
2744,1.538,1.957,-125.121
2745,0.652,0.583,-53.893
2746,0.676,0.256,-58.553
2747,2.423,0.443,-133.462
2748,3.006,1.165,-251.850
2749,4.474,1.631,-351.224
2750,6.990,1.817,-366.160
2751,7.852,1.282,-290.528
2752,3.448,0.117,-165.407
2753,-3.332,-0.932,-66.079
2754,-0.419,-0.280,-54.056
2755,0.816,0.140,-94.668
2756,2.703,1.561,-202.221
2757,4.660,2.400,-324.942
2758,6.268,3.845,-376.761
2759,3.402,0.769,-321.144
2760,2.167,-1.095,-192.365
2761,2.726,-0.816,-80.175
2762,-0.466,0.140,-24.139
2763,0.210,0.443,-52.868
2764,1.375,1.258,-159.931
2765,5.802,1.724,-291.460
2766,4.846,2.586,-389.390
2767,3.099,2.423,-361.872
2768,2.027,1.794,-228.270
2769,4.474,1.375,-95.926
2770,2.610,0.559,-41.404
2771,0.699,0.070,-59.438
2772,1.282,-0.163,-168.343
2773,3.938,-0.466,-308.469
2774,4.567,-0.280,-395.145
2775,4.474,2.353,-357.305
2776,3.029,2.190,-199.937
2777,0.303,0.536,-48.371
2778,1.328,-0.419,-2.843
2779,-0.932,0.489,-43.105
2780,2.120,0.699,-158.650
2781,2.726,1.468,-294.931
2782,4.520,2.027,-395.774
2783,7.013,1.911,-395.238
2784,5.569,0.955,-290.644
2785,-0.606,-0.047,-132.647
2786,-2.447,-0.466,-32.480
2787,1.142,0.186,-17.219
2788,0.862,0.676,-76.331
2789,1.794,2.586,-217.226
2790,4.497,4.986,-363.084
2791,6.105,4.427,-425.924
2792,1.934,2.144,-327.225
2793,6.268,-0.350,-154.712
2794,2.144,-0.419,-28.706
2795,-1.491,0.489,-11.417
2796,1.584,0.443,-73.325
2797,3.285,1.421,-189.382
2798,6.780,1.911,-321.260
2799,5.056,2.796,-402.508
2800,3.052,2.307,-353.112
2801,1.911,1.538,-215.642
2802,4.846,1.165,-80.478
2803,1.887,0.280,-24.465
2804,0.676,-0.093,-48.301
2805,2.889,-0.396,-155.178
2806,3.984,-1.375,-306.115
2807,3.938,-0.629,-410.593
2808,6.804,1.794,-379.953
2809,2.074,1.515,-230.157
2810,-0.676,0.746,-83.065
2811,0.885,-0.233,-8.528
2812,-0.909,0.303,-28.100
2813,0.466,0.746,-126.449
2814,2.283,1.421,-275.406
2815,5.312,1.864,-395.424
2816,6.920,1.957,-405.304
2817,6.641,1.375,-307.723
2818,0.233,0.303,-156.366
2819,-2.353,-0.280,-45.365
2820,0.839,0.186,-22.857
2821,0.699,0.792,-82.226
2822,1.328,2.633,-211.681
2823,5.476,4.730,-350.945
2824,4.707,3.472,-406.888
2825,3.052,1.701,-312.453
2826,6.221,-0.140,-168.622
2827,2.330,-0.163,-52.402
2828,-0.256,0.140,-12.862
2829,1.701,0.350,-73.535
2830,4.101,1.165,-205.483
2831,5.429,2.214,-344.887
2832,5.149,2.563,-398.803
2833,3.355,1.748,-347.123
2834,2.190,0.722,-236.472
2835,0.606,0.023,-98.536
2836,0.792,0.117,-16.427
2837,-0.023,0.047,-33.039
2838,4.311,0.489,-130.154
2839,4.031,-0.350,-297.238
2840,4.031,0.722,-424.340
2841,5.476,3.705,-397.917
2842,2.913,2.540,-255.508
2843,1.351,0.536,-88.284
2844,0.303,-0.093,-3.821
2845,0.163,0.000,-12.512
2846,0.070,0.652,-101.378
2847,1.515,1.538,-268.020
2848,3.542,2.004,-405.769
2849,5.266,3.332,-433.963
2850,6.058,3.984,-345.096
2851,3.681,2.633,-178.268
2852,2.330,0.862,-37.839
2853,0.280,-0.047,-6.990
2854,1.165,0.326,-53.846
2855,0.699,1.188,-169.228
2856,4.380,3.169,-320.561
2857,2.470,3.052,-397.382
2858,6.990,0.652,-338.433
2859,6.105,0.256,-224.123
2860,2.260,0.280,-97.813
2861,0.536,0.000,-17.102
2862,0.932,0.093,-30.337
2863,2.773,0.746,-137.493
2864,5.382,1.654,-280.579
2865,4.753,1.584,-373.802
2866,1.235,0.583,-392.116
2867,-0.652,0.303,-318.418
2868,1.095,0.652,-178.362
2869,2.633,0.722,-47.788
2870,-0.163,0.140,-22.834
2871,-0.070,0.513,-65.496
2872,3.565,1.515,-165.337
2873,5.639,1.608,-306.628
2874,7.992,2.144,-382.260
2875,1.561,3.751,-338.386
2876,1.654,2.050,-235.097
2877,0.559,0.932,-119.040
2878,-0.117,0.210,-36.465
2879,-0.140,0.093,-22.508
2880,1.235,0.559,-99.747
2881,2.353,1.235,-242.064
2882,4.171,2.656,-372.684
2883,7.689,4.590,-427.182
2884,6.035,4.404,-361.709
2885,2.796,2.447,-210.213
2886,2.004,1.072,-69.364
2887,0.373,0.047,-10.695
2888,2.190,0.350,-36.581
2889,1.375,0.466,-128.826
2890,0.303,1.934,-272.330
2891,2.633,2.913,-353.904
2892,10.462,0.839,-348.987
2893,6.641,0.979,-272.214
2894,3.751,0.792,-161.982
2895,1.468,0.256,-51.353
2896,0.350,0.047,-20.178
2897,1.934,0.443,-82.692
2898,3.355,0.885,-208.745
2899,2.749,0.559,-345.353
2900,-0.326,0.186,-424.526
2901,3.146,1.631,-385.149
2902,3.612,1.515,-236.542
2903,1.981,0.606,-75.236
2904,0.629,0.093,-11.137
2905,0.699,0.163,-33.156
2906,3.751,0.862,-122.605
2907,3.029,1.421,-230.973
2908,4.520,1.841,-315.226
2909,2.726,2.283,-347.613
2910,1.911,2.050,-310.939
2911,2.260,1.375,-223.284
2912,0.583,0.443,-106.481
2913,-0.816,-0.140,-20.481
2914,0.513,0.070,-17.289
2915,1.515,0.583,-98.536
2916,4.031,1.724,-255.112
2917,6.128,3.751,-413.808
2918,5.499,5.545,-468.796
2919,4.311,4.078,-375.060
2920,1.841,0.792,-174.354
2921,1.328,-0.489,-8.877
2922,-0.792,0.210,-0.513
2923,0.443,0.326,-34.158
2924,-0.117,1.584,-114.822
2925,2.144,2.749,-232.627
2926,9.786,2.050,-342.860
2927,9.833,1.911,-390.927
2928,5.289,2.167,-341.974
2929,2.307,1.165,-197.957
2930,2.027,0.489,-48.138
2931,-0.583,-0.163,-4.777
2932,0.350,0.140,-42.220
2933,3.542,0.862,-163.846
2934,6.221,0.117,-328.670
2935,4.893,-1.771,-439.368
2936,3.868,-0.350,-420.285
2937,4.008,1.771,-254.483
2938,-0.117,1.048,-58.390
2939,2.679,-0.909,-1.584
2940,0.117,-0.047,-23.044
2941,0.070,0.419,-100.889
2942,2.330,0.885,-227.851
2943,2.120,1.771,-341.741
2944,3.775,1.981,-385.382
2945,6.244,1.771,-340.576
2946,4.217,0.629,-220.162
2947,-1.864,-0.536,-88.657
2948,-1.258,-0.326,-34.740
2949,0.466,0.140,-51.516
2950,0.583,1.188,-150.029
2951,3.355,3.961,-295.095
2952,6.314,5.848,-394.469
2953,5.079,3.751,-382.982
2954,2.214,0.559,-240.316
2955,6.314,-1.584,-79.173
2956,-0.955,0.256,-11.254
2957,-0.792,0.746,-38.305
2958,0.350,1.515,-119.249
2959,3.029,2.586,-240.782
2960,8.598,2.283,-352.692
2961,5.149,2.726,-399.758
2962,1.864,2.307,-326.480
2963,1.608,1.701,-169.298
2964,4.986,1.351,-55.151
2965,0.419,0.233,-32.247
2966,1.491,0.396,-62.025
2967,3.425,0.396,-179.363
2968,3.635,-0.396,-332.305
2969,5.149,-0.163,-423.757
2970,4.683,2.470,-376.295
2971,1.375,2.936,-202.407
2972,0.862,0.396,-39.284
2973,1.584,-0.489,-2.447
2974,-0.256,0.373,-42.895
2975,2.050,0.885,-158.953
2976,2.726,1.678,-300.547
2977,4.870,2.074,-403.043
2978,6.664,1.981,-393.956
2979,6.198,1.258,-282.629
2980,0.862,0.210,-127.544
2981,-2.982,-0.629,-33.482
2982,1.421,0.186,-23.859
2983,0.816,0.536,-89.542
2984,1.421,2.470,-235.610
2985,5.336,5.103,-378.695
2986,5.708,3.868,-423.035
2987,4.008,0.536,-310.636
2988,4.800,-0.513,-141.291
2989,1.771,-0.396,-26.981
2990,-0.839,0.396,-19.525
2991,0.746,0.769,-88.773
2992,3.798,1.445,-210.632
2993,5.965,2.190,-344.887
2994,4.427,2.819,-402.880
2995,1.981,2.167,-325.711
2996,2.027,1.608,-181.041
2997,5.382,1.305,-70.156
2998,0.280,0.047,-59.858
2999,1.142,-0.047,-124.492
3000,3.146,-0.280,-232.371
3001,5.149,-0.350,-328.320
3002,4.147,0.792,-349.151
3003,4.078,2.563,-256.370
3004,1.282,1.375,-132.321
3005,-0.233,0.536,-48.417
3006,0.419,0.140,-48.301
3007,1.911,0.466,-131.762
3008,2.120,1.235,-249.753
3009,4.031,1.678,-349.617
3010,6.547,1.841,-370.307
3011,6.850,1.188,-300.127
3012,2.377,0.140,-171.698
3013,-3.821,-0.839,-66.219
3014,0.163,0.000,-41.334
3015,0.606,0.513,-80.245
3016,2.027,2.330,-198.889
3017,5.266,4.427,-332.444
3018,5.965,4.217,-394.749
3019,2.726,1.048,-319.769
3020,4.101,-0.583,-163.822
3021,3.448,-0.862,-40.356
3022,-1.212,0.466,-16.986
3023,0.792,0.652,-79.616
3024,1.864,1.748,-192.761
3025,6.431,2.027,-314.876
3026,4.963,2.703,-392.954
3027,2.400,2.307,-346.494
3028,1.072,1.678,-197.701
3029,5.056,1.538,-74.397
3030,1.095,0.373,-43.221
3031,1.421,0.350,-70.832
3032,1.654,0.256,-185.491
3033,4.357,0.280,-323.078
3034,4.963,-0.233,-395.704
3035,4.846,2.400,-345.889
3036,1.002,3.029,-190.641
3037,1.002,0.489,-44.736
3038,1.398,-0.396,-4.800
3039,-0.070,0.443,-55.780
3040,2.749,0.862,-178.082
3041,2.866,1.748,-315.179
3042,5.336,2.050,-402.787
3043,7.083,1.864,-376.644
3044,5.545,0.909,-258.467
3045,-0.746,-0.233,-105.875
3046,-2.773,-0.629,-30.570
3047,1.515,0.256,-32.038
3048,0.769,0.699,-106.388
3049,1.981,2.959,-252.246
3050,6.081,5.219,-383.774
3051,5.196,3.588,-409.358
3052,4.031,0.163,-285.891
3053,4.637,-0.769,-120.508
3054,1.118,-0.280,-21.669
3055,-0.606,0.419,-27.331
3056,0.466,1.025,-105.269
3057,4.031,1.608,-225.567
3058,6.221,2.190,-346.867
3059,4.590,2.726,-392.768
3060,1.841,1.957,-310.240
3061,1.678,1.351,-160.887
3062,4.777,1.165,-57.202
3063,0.979,0.210,-33.901
3064,1.025,0.070,-90.148
3065,2.377,-0.233,-226.360
3066,4.986,-0.466,-361.476
3067,4.497,0.606,-409.288
3068,3.518,3.215,-307.886
3069,1.981,1.421,-133.066
3070,1.515,-0.256,-14.073
3071,0.489,-0.140,-9.180
3072,-0.163,0.606,-77.682
3073,2.423,1.025,-209.094
3074,2.516,1.864,-341.415
3075,5.476,2.074,-414.414
3076,6.175,1.701,-366.812
3077,3.192,0.932,-230.414
3078,-1.282,0.093,-84.532
3079,-0.070,-0.023,-14.097
3080,1.002,0.210,-23.673
3081,0.932,1.118,-120.205
3082,2.610,3.518,-275.942
3083,5.918,5.243,-404.931
3084,4.031,3.472,-413.831
3085,3.285,1.515,-266.599
3086,6.338,-0.909,-98.140
3087,-0.303,0.093,-10.415
3088,0.210,0.210,-26.073
3089,1.491,0.839,-111.537
3090,5.126,1.468,-237.171
3091,5.988,2.283,-361.010
3092,4.613,2.703,-393.118
3093,2.749,1.981,-299.824
3094,3.192,1.212,-164.661
3095,3.588,0.652,-53.008
3096,0.792,0.023,-21.063
3097,1.491,-0.163,-77.985
3098,3.448,-0.885,-213.964
3099,3.868,-1.491,-356.327
3100,4.753,0.443,-418.352
3101,7.316,1.305,-327.318
3102,-1.328,1.538,-171.511
3103,0.489,0.093,-47.392
3104,-0.186,0.000,-7.316
3105,-0.746,0.419,-51.819
3106,1.095,0.932,-170.696
3107,3.169,1.561,-319.047
3108,5.988,1.911,-409.404
3109,7.200,1.771,-383.495
3110,5.056,1.048,-264.152
3111,-1.817,0.000,-117.409
3112,-1.188,-0.093,-31.828
3113,0.792,0.280,-31.385
3114,0.396,1.188,-110.489
3115,2.610,3.565,-250.615
3116,6.268,4.730,-376.318
3117,2.819,2.866,-392.465
3118,4.660,1.398,-275.988
3119,5.988,-0.186,-138.658
3120,1.584,-0.023,-39.843
3121,0.186,0.117,-21.483
3122,2.004,0.536,-99.328
3123,4.683,1.375,-238.266
3124,5.802,2.377,-362.292
3125,5.010,2.144,-387.665
3126,2.330,1.118,-328.716
3127,1.515,0.280,-211.913
3128,-0.303,-0.186,-73.465
3129,0.186,0.000,-9.600
3130,0.117,0.140,-43.128
3131,4.823,0.792,-157.368
3132,4.800,0.163,-324.918
3133,5.243,1.398,-435.710
3134,4.474,3.938,-383.751
3135,2.703,2.167,-235.633
3136,0.792,0.466,-72.416
3137,0.233,-0.093,-2.214
3138,0.117,0.047,-16.287
3139,0.443,0.676,-114.822
3140,1.748,1.584,-281.511
3141,3.192,2.097,-408.892
3142,5.266,3.961,-429.326
3143,5.615,4.404,-332.095
3144,4.241,2.866,-166.991
3145,2.516,0.862,-36.115
3146,0.256,-0.047,-8.225
3147,1.165,0.350,-59.392
3148,1.165,1.235,-174.797
3149,4.101,2.982,-325.058
3150,1.934,2.959,-394.213
3151,8.178,0.746,-337.594
3152,6.011,0.419,-220.371
3153,2.190,0.303,-93.177
3154,0.419,0.000,-14.679
3155,0.839,0.070,-25.537
3156,2.656,0.722,-129.548
3157,5.406,1.654,-281.627
3158,5.126,1.491,-390.368
3159,1.468,0.466,-421.474
3160,1.445,0.396,-341.298
3161,1.491,0.443,-183.301
3162,1.654,0.303,-40.612
3163,-0.443,-0.070,-11.976
3164,-0.373,0.280,-52.891
3165,2.703,1.235,-150.658
3166,6.175,1.631,-297.494
3167,7.782,2.120,-381.701
3168,0.885,3.868,-365.251
3169,1.748,2.144,-274.614
3170,1.258,1.048,-151.170
3171,0.769,0.186,-35.859
3172,0.047,-0.047,-4.870
3173,0.256,0.186,-55.384
3174,1.911,1.025,-194.159
3175,5.126,2.563,-357.003
3176,9.297,4.404,-454.350
3177,5.872,3.914,-422.918
3178,2.447,2.423,-269.558
3179,0.909,0.955,-91.732
3180,0.280,0.047,-4.357
3181,0.210,0.000,-13.584
3182,0.233,0.443,-85.534
3183,0.583,2.004,-193.879
3184,1.957,3.332,-296.726
3185,11.347,1.351,-345.329
3186,8.621,1.235,-328.227
3187,4.101,1.491,-256.323
3188,2.796,0.839,-131.925
3189,1.258,0.186,-23.486
3190,0.093,-0.023,-12.978
3191,1.515,0.396,-83.367
3192,4.777,0.885,-232.860
3193,5.406,-0.489,-394.679
3194,4.870,-1.934,-464.719
3195,3.472,-0.769,-386.454
3196,3.099,0.722,-199.541
3197,0.350,0.396,-25.677
3198,1.608,-0.606,-0.839
3199,0.280,-0.070,-34.461
3200,0.373,0.373,-116.989
3201,2.866,0.629,-234.911
3202,2.703,1.491,-339.201
3203,2.563,1.981,-368.536
3204,3.146,1.817,-310.263
3205,4.171,1.048,-198.283
3206,-1.048,-0.303,-94.551
3207,-1.654,-0.443,-43.571
3208,0.722,0.256,-69.457
3209,1.118,1.375,-179.736
3210,4.101,3.914,-313.828
3211,6.058,5.825,-388.364
3212,5.522,4.404,-356.723
3213,2.144,0.839,-227.175
3214,3.495,-1.118,-73.628
3215,-0.070,0.070,-12.932
3216,0.746,0.373,-44.154
3217,-0.350,1.631,-116.034
3218,1.282,2.866,-232.977
3219,9.110,2.214,-340.460
3220,7.852,2.237,-386.733
3221,3.751,2.167,-332.654
3222,1.724,1.375,-183.627
3223,3.798,1.002,-51.400
3224,-0.070,0.047,-19.223
3225,0.326,0.186,-45.785
3226,4.031,0.839,-164.428
3227,5.173,-0.210,-328.344
3228,4.707,-1.328,-434.009
3229,4.054,0.489,-408.659
3230,2.586,2.633,-236.122
3231,0.419,0.839,-53.310
3232,2.423,-0.769,-1.817
3233,0.070,0.047,-25.117
3234,0.140,0.769,-108.065
3235,2.936,1.235,-238.406
3236,2.726,1.887,-345.213
3237,4.846,2.004,-388.807
3238,6.338,1.631,-335.310
3239,3.588,0.559,-211.145
3240,-1.911,-0.419,-78.521
3241,-1.212,-0.303,-26.469
3242,0.862,0.233,-42.220
3243,1.538,1.282,-145.811
3244,2.726,3.775,-299.009
3245,6.151,5.755,-408.263
3246,4.916,3.518,-397.475
3247,2.260,0.909,-241.248
3248,6.501,-1.468,-71.461
3249,-1.887,0.513,-6.175
3250,-0.443,0.606,-35.929
3251,0.792,1.375,-119.319
3252,4.823,1.957,-242.809
3253,7.689,2.260,-359.705
3254,4.916,2.773,-403.836
3255,1.445,2.214,-322.053
3256,2.144,1.654,-157.182
3257,5.103,1.305,-53.124
3258,0.396,0.163,-34.437
3259,2.144,0.303,-83.833
3260,2.610,-0.140,-213.009
3261,4.590,-0.652,-352.948
3262,4.520,0.233,-416.022
3263,3.821,3.169,-332.701
3264,2.377,1.748,-159.652
3265,0.699,0.117,-24.582
3266,0.816,-0.256,-6.338
3267,-0.443,0.583,-67.174
3268,2.703,0.885,-195.767
3269,2.656,1.794,-332.841
3270,5.802,2.097,-414.763
3271,7.270,1.748,-380.489
3272,4.520,0.816,-253.667
3273,-2.027,-0.186,-104.943
3274,-1.328,-0.210,-27.191
3275,1.375,0.280,-26.492
3276,0.652,1.048,-111.933
3277,2.353,3.402,-259.981
3278,6.175,5.126,-390.788
3279,3.868,3.379,-410.290
3280,3.402,1.608,-279.111
3281,6.035,-0.583,-118.341
3282,0.443,-0.070,-16.333
3283,0.140,0.117,-18.174
3284,1.654,0.652,-95.600
3285,4.660,1.468,-230.297
3286,5.755,2.423,-371.239
3287,4.311,2.843,-409.288
3288,2.843,2.237,-316.740
3289,3.891,1.398,-179.177
3290,3.448,0.606,-62.188
3291,0.070,-0.117,-33.505
3292,1.887,-0.163,-93.876
3293,3.868,-0.839,-219.020
3294,3.891,-1.048,-342.044
3295,5.056,1.025,-385.335
3296,6.291,1.305,-294.652
3297,-1.748,1.608,-163.985
3298,0.839,0.093,-60.184
3299,0.093,0.000,-22.228
3300,-0.256,0.489,-76.634
3301,1.491,1.025,-203.129
3302,4.101,1.608,-338.689
3303,6.035,1.864,-400.108
3304,6.850,1.561,-355.628
3305,2.330,0.816,-232.045
3306,-1.351,0.396,-100.726
3307,0.093,0.093,-25.863
3308,0.489,0.303,-38.981
3309,0.373,1.584,-136.142
3310,4.217,4.078,-282.699
3311,6.035,4.241,-390.531
3312,2.120,2.377,-367.185
3313,6.128,0.652,-239.501
3314,4.613,-0.163,-108.252
3315,0.769,-0.023,-25.280
3316,0.419,0.117,-26.399
3317,2.563,0.652,-123.024
3318,5.126,1.561,-269.232
3319,6.361,2.400,-378.415
3320,4.334,1.678,-380.279
3321,1.817,0.699,-307.257
3322,0.000,-0.140,-175.868
3323,0.117,-0.093,-44.573
3324,-0.303,-0.070,-8.668
3325,0.419,0.280,-54.266
3326,4.800,1.048,-178.012
3327,5.336,0.513,-341.997
3328,5.802,1.724,-437.131
3329,3.961,3.984,-366.509
3330,2.540,1.981,-212.682
3331,0.466,0.396,-56.363
3332,0.466,-0.140,-1.002
3333,0.163,0.047,-18.617
3334,0.256,0.816,-126.263
3335,1.584,1.724,-297.494
3336,2.959,2.377,-415.066
3337,5.615,4.404,-423.221
3338,5.942,4.380,-315.505
3339,4.753,2.749,-152.988
3340,1.678,0.629,-30.430
3341,0.699,0.047,-10.275
3342,1.165,0.326,-65.916
3343,1.235,1.235,-185.771
3344,4.194,3.006,-334.192
3345,2.190,2.773,-394.446
3346,7.992,0.443,-328.786
3347,5.289,0.373,-210.516
3348,2.074,0.256,-86.187
3349,0.373,-0.023,-13.398
3350,0.885,0.093,-30.966
3351,3.006,0.839,-145.485
3352,5.918,1.748,-294.396
3353,5.639,1.398,-393.584
3354,1.817,0.163,-408.799
3355,1.165,-0.117,-314.270
3356,-0.093,-0.093,-154.456
3357,1.282,0.210,-28.449
3358,-1.048,-0.117,-16.100
3359,0.629,0.606,-70.669
3360,4.194,1.491,-187.379
3361,6.314,1.538,-334.122
3362,7.037,2.540,-389.413
3363,0.932,3.612,-340.856
3364,1.282,1.771,-226.406
3365,0.350,0.699,-99.444
3366,0.163,0.000,-12.745
3367,0.117,0.023,-15.984
3368,1.584,0.513,-106.201
3369,2.214,1.305,-266.832
3370,5.103,3.169,-405.024
3371,7.875,5.079,-449.201
3372,5.056,4.380,-355.884
3373,2.749,2.214,-181.624
3374,1.934,0.769,-44.060
3375,0.443,0.000,-5.033
3376,1.678,0.303,-43.082
3377,0.769,0.676,-151.287
3378,0.070,2.470,-283.771
3379,4.893,2.610,-354.137
3380,10.998,0.722,-341.228
3381,5.895,1.165,-265.597
3382,3.262,0.839,-154.572
3383,0.839,0.186,-44.456
3384,0.280,0.023,-14.213
3385,1.864,0.419,-74.164
3386,3.588,0.955,-202.081
3387,5.056,0.536,-355.791
3388,3.379,-0.839,-449.620
3389,3.448,-0.419,-405.490
3390,3.472,0.373,-252.642
3391,2.913,0.303,-86.070
3392,0.396,-0.070,-4.497
3393,0.117,-0.070,-7.712
3394,0.117,0.303,-62.164
3395,0.722,1.072,-169.344
3396,4.590,1.421,-300.570
3397,4.078,1.934,-386.687
3398,2.074,2.423,-382.959
3399,3.821,1.724,-285.215
3400,1.282,0.396,-143.085
3401,-2.656,-0.559,-40.146
3402,0.606,0.047,-10.462
3403,1.002,0.303,-46.437
3404,2.190,1.305,-175.239
3405,4.031,3.868,-355.185
3406,5.848,6.641,-459.103
3407,6.431,5.103,-419.633
3408,1.282,1.445,-231.812
3409,4.800,-1.398,-36.534
3410,-2.540,0.676,0.093
3411,-0.233,0.373,-19.922
3412,1.165,0.979,-89.705
3413,0.909,2.889,-214.407
3414,9.926,2.144,-341.671
3415,9.343,2.260,-410.080
3416,4.893,2.423,-367.441
3417,2.050,1.421,-215.502
3418,3.448,0.839,-52.914
3419,-0.979,-0.210,-4.683
3420,0.326,0.047,-31.245
3421,3.518,0.583,-141.897
3422,5.476,-0.233,-310.496
3423,5.056,-1.584,-433.543
3424,3.868,0.280,-428.883
3425,5.382,1.817,-266.995
3426,-0.862,1.212,-73.139
3427,2.004,-0.629,-3.006
3428,0.070,0.000,-23.207
3429,-0.419,0.746,-101.052
3430,2.726,0.909,-228.736
3431,2.237,1.794,-342.533
3432,5.103,1.981,-394.050
3433,6.780,1.538,-345.562
3434,3.775,0.489,-224.239
3435,-2.307,-0.443,-91.056
3436,-1.072,-0.233,-31.944
3437,0.955,0.256,-41.241
3438,0.559,1.235,-138.682
3439,3.495,4.101,-292.415
3440,6.850,5.545,-407.867
3441,4.311,2.982,-400.201
3442,3.029,0.746,-252.292
3443,5.965,-1.118,-86.839
3444,-1.048,0.256,-9.413
3445,0.163,0.396,-37.420
3446,0.909,1.328,-129.315
3447,5.452,1.748,-254.669
3448,6.338,2.470,-374.664
3449,4.474,2.773,-401.133
3450,0.839,1.957,-295.514
3451,3.425,1.654,-133.136
3452,4.567,1.002,-47.532
3453,0.140,0.000,-48.790
3454,1.841,-0.023,-131.039
3455,3.938,-0.513,-262.009
3456,4.637,-0.699,-370.820
3457,4.124,1.491,-379.813
3458,5.336,2.074,-256.766
3459,-0.769,1.421,-107.157
3460,1.328,-0.280,-14.889
3461,-0.746,0.280,-26.469
3462,1.118,0.606,-122.628
3463,2.283,1.328,-260.308
3464,4.520,1.841,-378.392
3465,7.223,1.957,-403.393
3466,7.340,1.165,-324.010
3467,1.887,0.186,-177.243
3468,-4.520,-0.816,-59.322
3469,0.303,0.070,-25.327
3470,0.559,0.489,-59.648
3471,1.258,2.167,-176.055
3472,4.101,4.567,-319.140
3473,6.151,4.567,-406.655
3474,1.701,2.633,-352.040
3475,5.685,0.513,-203.432
3476,4.707,-0.629,-72.929
3477,-0.536,0.210,-13.025
3478,1.048,0.233,-45.155
3479,2.610,1.048,-151.613
3480,5.802,1.794,-297.401
3481,4.823,2.749,-400.970
3482,3.099,2.540,-369.841
3483,2.447,1.864,-244.440
3484,4.590,1.235,-110.652
3485,1.212,0.186,-52.751
3486,0.932,-0.093,-87.981
3487,3.285,-0.373,-178.292
3488,4.730,-0.862,-284.889
3489,3.914,-0.140,-347.729
3490,6.594,1.561,-307.770
3491,1.678,1.305,-195.464
3492,-1.887,1.165,-105.223
3493,0.489,0.233,-73.908
3494,0.792,0.396,-101.285
3495,1.748,0.722,-179.037
3496,3.938,0.955,-263.709
3497,5.522,1.375,-318.138
3498,6.967,1.398,-305.044
3499,5.918,0.326,-245.629
3500,-1.025,-0.722,-156.413
3501,-4.217,-0.676,-104.198
3502,0.396,0.769,-110.419
3503,3.681,1.911,-172.700
3504,3.705,2.982,-250.825
3505,5.056,3.938,-295.374
3506,1.934,1.282,-278.994
3507,4.101,-1.002,-197.677
3508,2.889,-0.443,-117.432
3509,2.283,-0.070,-85.581
3510,0.629,0.909,-113.657
3511,3.332,1.188,-192.062
3512,4.916,1.701,-279.740
3513,4.264,2.190,-325.105
3514,2.749,1.701,-288.174
3515,0.233,0.839,-176.055
3516,1.631,0.699,-71.927
3517,1.351,0.536,-46.786
3518,3.169,0.885,-109.953
3519,2.843,0.489,-241.831
3520,4.916,0.419,-364.109
3521,4.078,-0.629,-393.910
3522,3.868,2.493,-306.185
3523,0.629,2.679,-145.905
3524,0.885,0.186,-23.370
3525,0.443,-0.117,-11.813
3526,0.979,0.419,-73.535
3527,3.565,0.932,-190.221
3528,3.052,1.817,-315.971
3529,5.033,2.027,-392.186
3530,6.804,1.864,-364.925
3531,5.639,0.955,-251.291
3532,0.000,-0.163,-105.782
3533,-2.540,-0.629,-31.991
3534,1.911,0.256,-38.585
3535,0.792,0.373,-111.724
3536,1.748,2.307,-250.126
3537,6.198,4.311,-375.410
3538,6.314,3.775,-401.925
3539,2.726,0.047,-291.809
3540,4.660,-1.351,-131.831
3541,0.932,-0.373,-30.803
3542,-1.188,0.396,-21.646
3543,1.212,0.489,-95.856
3544,2.796,1.468,-220.768
3545,6.617,1.957,-340.786
3546,4.777,2.610,-389.133
3547,2.982,1.957,-304.158
3548,2.400,1.142,-162.657
3549,2.423,0.583,-53.893
3550,0.629,0.117,-21.413
3551,2.167,0.233,-80.688
3552,3.984,-0.233,-223.028
3553,4.543,-1.445,-367.884
3554,3.728,-0.350,-429.023
3555,5.103,2.260,-337.803
3556,2.260,1.118,-151.427
3557,-0.559,0.350,-20.038
3558,1.002,-0.326,-5.243
3559,-1.118,0.652,-58.600
3560,2.190,0.839,-179.643
3561,2.423,1.608,-312.826
3562,4.660,2.027,-400.550
3563,6.594,1.794,-379.837
3564,4.497,0.862,-264.175
3565,-0.769,0.023,-114.147
3566,-1.491,-0.280,-27.727
3567,1.142,0.210,-20.201
3568,0.559,0.746,-91.639
3569,1.841,3.076,-242.273
3570,5.848,5.499,-384.194
3571,5.615,4.031,-425.854
3572,2.004,1.841,-308.306
3573,6.105,-0.513,-136.422
3574,1.748,-0.373,-22.694
3575,-1.235,0.489,-15.029
3576,1.375,0.652,-85.418
3577,3.984,1.491,-206.205
3578,6.920,2.074,-342.417
3579,5.196,2.866,-412.061
3580,2.796,2.190,-345.376
3581,2.773,1.491,-202.920
3582,4.171,0.885,-72.347
3583,0.606,0.023,-26.049
3584,1.095,-0.093,-64.657
3585,3.239,-0.513,-187.216
3586,4.311,-1.212,-332.072
3587,3.914,0.280,-410.756
3588,6.804,2.074,-345.772
3589,0.652,1.654,-197.840
3590,0.629,0.303,-62.910
3591,0.163,-0.070,-7.130
3592,-0.862,0.419,-47.742
3593,1.072,0.885,-165.174
3594,3.379,1.561,-315.855
3595,6.501,1.957,-413.342
3596,8.108,1.678,-397.032
3597,5.079,0.816,-281.860
3598,-2.633,-0.210,-124.399
3599,-1.794,-0.210,-31.968
3600,1.095,0.280,-27.587
3601,0.070,1.002,-96.322
3602,3.006,3.379,-234.351
3603,6.105,4.543,-364.529
3604,2.936,2.726,-390.881
3605,4.800,1.305,-285.518
3606,6.244,-0.117,-153.128
3607,1.864,0.000,-50.072
3608,0.140,0.093,-19.269
3609,1.654,0.443,-82.832
3610,4.171,1.235,-215.828
3611,5.312,2.214,-342.766
3612,4.846,2.144,-377.483
3613,2.307,1.188,-330.045
3614,1.142,0.419,-227.431
3615,0.303,0.000,-92.687
3616,0.722,0.117,-15.821
3617,-0.513,0.047,-33.948
3618,4.380,0.862,-128.616
3619,5.010,0.186,-289.456
3620,4.008,0.839,-417.070
3621,5.895,3.565,-392.139
3622,2.377,2.773,-256.044
3623,1.491,0.583,-93.270
3624,0.303,-0.093,-4.590
3625,0.186,-0.047,-7.386
3626,0.070,0.536,-83.670
3627,1.305,1.468,-249.846
3628,3.332,1.981,-400.341
3629,4.777,3.379,-443.562
3630,5.988,4.334,-361.896
3631,3.961,3.006,-195.790
3632,3.379,1.212,-47.765
3633,-0.303,-0.163,-4.963
3634,1.398,0.326,-43.175
3635,0.629,0.979,-149.819
3636,3.821,2.913,-301.525
3637,2.889,3.169,-397.172
3638,6.338,1.072,-355.814
3639,7.060,0.280,-246.095
3640,2.633,0.396,-116.617
3641,0.722,0.023,-24.698
3642,0.699,0.047,-20.248
3643,2.400,0.606,-110.745
3644,4.823,1.515,-256.952
3645,4.986,1.701,-367.977
3646,1.817,0.746,-408.635
3647,0.023,0.513,-353.065
3648,2.260,0.932,-214.640
3649,2.214,0.536,-66.778
3650,0.466,0.140,-16.776
3651,-0.652,0.210,-46.344
3652,2.610,1.118,-137.773
3653,5.149,1.491,-280.951
3654,8.365,1.887,-377.227
3655,1.328,3.821,-364.179
3656,1.724,2.307,-276.198
3657,0.885,1.095,-153.990
3658,0.652,0.233,-43.990
3659,0.117,-0.047,-6.454
3660,0.816,0.256,-61.955
3661,1.981,0.955,-206.601
3662,3.938,2.353,-361.593
3663,7.573,4.567,-446.638
3664,5.802,4.823,-402.042
3665,3.309,2.889,-245.675
3666,2.097,1.188,-85.138
3667,0.536,0.093,-7.526
3668,1.421,0.210,-18.663
3669,0.979,0.350,-95.716
3670,0.210,1.701,-228.526
3671,2.214,3.122,-332.514
3672,10.112,1.538,-365.321
3673,8.644,1.048,-317.975
3674,4.264,1.142,-216.690
3675,2.004,0.466,-83.810
3676,0.023,-0.047,-5.872
3677,0.769,0.117,-25.816
3678,2.936,0.699,-129.898
3679,5.895,0.769,-292.834
3680,4.287,-1.072,-432.984
3681,3.495,-1.654,-456.167
3682,3.215,-0.093,-337.174
3683,3.495,0.606,-152.825
3684,0.629,-0.023,-11.790
3685,0.606,-0.256,-3.984
3686,0.070,0.093,-45.179
3687,1.305,0.350,-138.355
3688,4.357,0.419,-259.772
3689,3.169,1.142,-347.403
3690,0.140,2.493,-369.235
3691,3.309,1.887,-314.806
3692,2.679,0.792,-197.002
3693,-1.724,-0.303,-78.148
3694,-0.186,-0.093,-26.073
3695,0.536,0.326,-59.205
3696,1.305,1.654,-182.602
3697,4.194,4.450,-328.926
3698,6.105,6.454,-409.684
3699,5.336,4.800,-377.274
3700,0.769,1.957,-229.738
3701,4.404,-1.002,-56.596
3702,-0.862,0.280,-4.404
3703,0.023,0.606,-36.325
3704,-0.186,1.957,-114.986
3705,2.516,3.355,-243.299
3706,11.906,2.050,-356.933
3707,8.621,2.353,-404.441
3708,3.891,2.190,-338.223
3709,2.167,1.351,-179.550
3710,3.099,0.722,-40.449
3711,-0.885,-0.186,-5.522
3712,0.583,0.117,-38.515
3713,3.984,0.676,-160.910
3714,5.662,-0.443,-335.404
3715,4.683,-1.654,-449.830
3716,3.984,0.792,-423.501
3717,5.312,1.794,-243.299
3718,-1.072,1.072,-55.524
3719,2.447,-0.792,-1.864
3720,-0.186,0.093,-26.632
3721,-0.466,0.839,-110.512
3722,2.633,1.002,-238.848
3723,2.516,1.794,-348.428
3724,5.382,1.981,-390.601
3725,6.641,1.445,-334.192
3726,3.262,0.419,-210.842
3727,-2.563,-0.466,-82.412
3728,-0.769,-0.186,-30.570
3729,1.118,0.256,-42.989
3730,0.513,1.235,-142.782
3731,4.147,4.054,-297.541
3732,6.641,5.382,-408.822
3733,4.264,2.819,-393.397
3734,3.146,0.326,-242.273
3735,5.569,-1.188,-78.544
3736,-1.491,0.373,-8.714
3737,0.350,0.373,-40.053
3738,1.048,1.235,-129.431
3739,4.543,1.911,-248.751
3740,6.314,2.377,-362.152
3741,4.124,2.679,-391.277
3742,0.489,2.074,-290.691
3743,3.518,1.794,-131.249
3744,4.334,1.142,-55.850
3745,0.629,0.256,-53.870
3746,1.118,0.303,-129.734
3747,3.169,0.466,-258.024
3748,5.499,-0.186,-355.022
3749,4.357,0.606,-365.624
3750,2.703,3.402,-260.541
3751,1.491,1.631,-115.871
3752,0.816,0.070,-23.160
3753,0.396,0.047,-31.851
3754,2.004,0.513,-125.587
3755,2.679,1.305,-253.737
3756,3.984,1.817,-360.474
3757,6.780,1.934,-386.850
3758,7.107,1.282,-315.412
3759,2.982,0.280,-180.132
3760,-4.054,-0.909,-62.374
3761,0.000,-0.093,-34.204
3762,1.235,0.303,-62.910
3763,1.258,1.491,-171.884
3764,5.429,3.658,-312.942
3765,6.384,4.264,-402.042
3766,2.633,1.701,-360.451
3767,5.103,-0.979,-213.358
3768,2.679,-0.629,-79.290
3769,-0.816,0.186,-12.559
3770,0.652,0.210,-38.911
3771,1.142,1.142,-141.245
3772,5.569,1.701,-277.899
3773,5.382,2.586,-388.877
3774,3.518,2.563,-379.441
3775,1.981,1.841,-248.355
3776,4.287,1.375,-106.784
3777,2.726,0.559,-43.291
3778,0.303,-0.047,-72.929
3779,1.934,-0.186,-174.890
3780,4.450,-0.652,-294.931
3781,4.287,-0.443,-368.187
3782,4.287,1.934,-336.242
3783,4.986,1.305,-202.500
3784,-1.398,1.188,-74.257
3785,1.165,-0.280,-15.448
3786,-0.746,0.513,-55.803
3787,2.120,0.746,-174.797
3788,2.260,1.584,-309.051
3789,4.893,1.981,-398.547
3790,6.873,1.841,-382.609
3791,5.266,0.932,-273.356
3792,-0.559,0.000,-124.562
3793,-2.097,-0.373,-35.509
3794,1.235,0.186,-23.906
3795,0.280,0.699,-89.472
3796,2.214,3.006,-234.584
3797,5.942,5.219,-377.903
3798,5.499,3.728,-423.780
3799,2.796,1.258,-314.294
3800,4.916,-0.210,-148.607
3801,2.400,-0.513,-29.032
3802,-1.002,0.350,-12.046
3803,1.305,0.536,-77.146
3804,3.914,1.351,-202.337
3805,6.198,2.190,-346.424
3806,4.730,2.866,-412.993
3807,2.470,2.237,-341.834
3808,2.866,1.584,-201.196
3809,4.334,0.955,-73.581
3810,0.256,-0.023,-37.327
3811,1.421,-0.093,-85.278
3812,3.681,-0.489,-202.267
3813,4.380,-0.955,-328.064
3814,4.101,0.676,-384.986
3815,6.710,1.841,-310.356
3816,-0.163,1.608,-179.247
3817,0.280,0.373,-69.993
3818,0.536,-0.093,-22.927
3819,-0.513,0.489,-69.038
3820,1.445,0.955,-188.544
3821,3.961,1.515,-323.171
3822,6.641,1.864,-396.333
3823,7.945,1.421,-366.742
3824,3.891,0.536,-252.549
3825,-3.332,-0.373,-111.467
3826,-1.258,-0.117,-34.601
3827,0.862,0.280,-33.575
3828,0.326,1.282,-112.865
3829,3.798,3.775,-256.300
3830,6.198,4.520,-376.575
3831,2.703,2.447,-380.419
3832,4.846,1.002,-262.055
3833,5.312,-0.186,-127.707
3834,1.305,-0.047,-33.599
3835,0.350,0.093,-22.135
3836,1.887,0.606,-104.734
3837,4.613,1.445,-242.786
3838,5.336,2.423,-362.898
3839,4.264,2.307,-377.553
3840,2.959,1.515,-304.065
3841,2.237,0.559,-191.689
3842,0.792,0.023,-73.372
3843,0.769,0.093,-15.355
3844,1.072,0.117,-49.093
3845,4.334,0.047,-169.997
3846,3.472,-0.746,-338.689
3847,4.474,1.305,-433.380
3848,4.427,3.681,-362.362
3849,2.866,1.561,-197.607
3850,1.864,-0.140,-38.818
3851,0.210,-0.093,-1.515
3852,-0.489,0.303,-36.371
3853,0.280,0.955,-150.238
3854,2.330,1.748,-310.263
3855,4.730,1.981,-421.544
3856,5.173,2.679,-409.614
3857,4.311,2.982,-293.580
3858,2.540,1.817,-127.451
3859,0.909,0.303,-16.100
3860,1.072,0.140,-12.629
3861,0.163,0.513,-83.950
3862,1.561,2.377,-225.358
3863,5.918,4.031,-367.441
3864,2.493,2.679,-397.778
3865,7.316,0.466,-300.034
3866,4.660,0.210,-164.754
3867,1.538,0.023,-46.181
3868,0.210,0.000,-11.906
3869,1.934,0.326,-71.880
3870,3.309,1.235,-208.349
3871,4.171,2.214,-339.015
3872,4.497,2.330,-379.254
3873,2.889,1.421,-349.081
3874,1.841,0.559,-248.541
3875,1.631,0.186,-112.120
3876,1.142,0.163,-25.630
3877,0.583,0.117,-32.504
3878,2.726,0.303,-122.511
3879,3.891,0.210,-278.621
3880,5.103,1.351,-397.382
3881,4.474,3.612,-371.845
3882,2.493,2.214,-254.436
3883,1.002,0.652,-109.929
3884,0.583,-0.093,-13.491
3885,-0.117,0.070,-16.357
3886,0.489,0.629,-109.953
3887,2.214,1.468,-272.191
3888,3.425,1.911,-400.713
3889,5.010,3.751,-426.087
3890,4.800,4.357,-333.376
3891,3.285,2.819,-172.583
3892,3.192,1.048,-42.103
3893,0.047,-0.047,-8.807
3894,1.002,0.419,-60.906
3895,1.654,1.491,-177.406
3896,4.008,3.006,-322.705
3897,1.841,2.866,-383.168
3898,8.668,0.909,-330.371
3899,6.221,0.489,-218.671
3900,2.190,0.373,-96.485
3901,0.583,0.023,-18.989
3902,0.909,0.117,-31.059
3903,3.029,0.769,-137.423
3904,5.266,1.538,-284.516
3905,4.124,1.165,-390.112
3906,0.163,0.326,-414.763
3907,1.165,0.839,-330.278
3908,2.190,0.839,-173.026
3909,2.377,0.536,-39.330
3910,-0.373,0.023,-17.265
3911,-0.559,0.326,-57.341
3912,2.586,1.328,-152.732
3913,6.314,1.701,-295.164
3914,6.827,2.330,-368.396
3915,1.398,3.751,-350.665
3916,2.120,2.144,-270.723
3917,1.515,1.165,-161.842
3918,0.722,0.303,-55.128
3919,0.093,-0.047,-6.011
3920,0.396,0.140,-47.206
3921,1.561,0.839,-188.194
3922,4.217,2.400,-354.533
3923,7.340,4.730,-455.445
3924,5.732,5.149,-418.002
3925,3.309,3.006,-262.987
3926,1.491,1.095,-93.317
3927,0.816,0.140,-8.341
3928,0.256,0.023,-15.192
3929,0.326,0.489,-86.653
3930,0.466,2.027,-192.971
3931,2.237,3.239,-301.292
3932,11.883,1.235,-353.484
3933,8.411,1.398,-337.291
3934,4.427,1.538,-257.861
3935,2.726,0.792,-121.999
3936,0.373,0.023,-14.306
3937,0.117,0.000,-15.914
3938,1.911,0.536,-97.394
3939,5.452,0.885,-251.197
3940,4.986,-0.839,-411.664
3941,4.474,-1.934,-463.414
3942,3.355,-0.396,-370.889
3943,2.260,1.095,-171.884
3944,0.396,0.163,-14.073
3945,1.398,-0.513,-2.283
3946,0.140,0.070,-38.655
3947,0.466,0.699,-132.251
3948,3.122,1.165,-256.766
3949,3.146,1.911,-356.094
3950,3.425,2.004,-372.171
3951,4.147,1.748,-301.852
3952,3.495,0.769,-183.884
3953,-2.167,-0.536,-77.403
3954,-0.489,-0.210,-37.163
3955,0.792,0.303,-77.030
3956,1.305,1.584,-199.425
3957,4.520,4.171,-333.237
3958,6.314,5.732,-396.286
3959,5.196,3.868,-347.450
3960,2.586,-0.023,-202.570
3961,2.866,-1.002,-55.687
3962,-0.373,0.163,-9.949
3963,0.466,0.489,-49.536
3964,-0.955,2.004,-137.167
3965,3.728,2.470,-265.271
3966,9.972,1.981,-366.323
3967,6.710,2.423,-395.075
3968,3.472,1.957,-306.581
3969,1.911,1.025,-135.769
3970,2.330,0.513,-26.981
3971,-0.676,-0.140,-13.118
3972,1.445,0.373,-76.634
3973,4.986,0.606,-224.006
3974,5.522,-1.072,-379.510
3975,3.961,-1.165,-444.890
3976,3.751,1.771,-363.736
3977,3.355,1.515,-164.172
3978,-0.070,0.326,-20.341
3979,1.468,-0.489,-6.081
3980,-0.606,0.419,-54.219
3981,2.027,0.699,-167.341
3982,2.283,1.538,-297.005
3983,3.332,2.004,-378.415
3984,6.175,1.934,-378.881
3985,5.429,1.025,-288.477
3986,0.350,0.047,-150.378
3987,-2.353,-0.373,-48.860
3988,0.769,0.093,-24.349
3989,0.699,0.489,-72.253
3990,1.421,2.353,-212.403
3991,5.406,5.382,-366.020
3992,7.037,4.963,-434.801
3993,2.540,1.794,-349.220
3994,4.520,-0.093,-169.321
3995,3.495,-0.862,-29.428
3996,-1.911,0.606,-11.790
3997,1.328,0.489,-68.898
3998,1.701,1.724,-175.659
3999,6.710,1.957,-301.106
4000,5.522,2.749,-397.335
4001,2.819,2.540,-373.755
4002,1.002,1.957,-231.416
4003,5.778,1.771,-92.175
4004,1.794,0.466,-52.145
4005,0.233,0.093,-96.229
4006,2.167,0.210,-200.473
4007,5.010,0.000,-303.646
4008,4.334,-0.140,-353.042
4009,4.054,2.540,-302.504
4010,2.819,2.120,-176.451
4011,-0.117,1.025,-72.044
4012,0.466,0.117,-37.723
4013,1.468,0.280,-93.782
4014,2.913,0.746,-207.254
4015,2.843,1.538,-316.531
4016,5.895,1.817,-373.359
4017,7.340,1.491,-339.528
4018,4.637,0.396,-237.334
4019,-2.540,-0.583,-109.929
4020,-1.981,-0.350,-49.909
4021,0.769,0.350,-58.949
4022,0.769,1.491,-143.272
4023,4.357,3.938,-272.563
4024,6.035,4.683,-369.328
4025,3.332,2.493,-359.472
4026,2.866,0.466,-233.233
4027,5.545,-1.002,-98.582
4028,1.048,-0.186,-26.702
4029,-0.489,0.559,-40.682
4030,0.606,1.375,-134.301
4031,5.732,1.654,-260.377
4032,6.105,2.447,-374.315
4033,4.613,2.656,-389.460
4034,1.375,1.678,-278.482
4035,3.099,1.282,-122.977
4036,3.612,0.722,-35.882
4037,0.396,0.000,-34.251
4038,1.748,-0.047,-120.857
4039,3.868,-0.629,-262.638
4040,4.497,-1.002,-382.726
4041,3.961,1.258,-399.339
4042,5.615,2.074,-272.773
4043,-0.419,1.305,-109.230
4044,1.491,-0.350,-10.998
4045,-0.536,0.163,-15.611
4046,0.233,0.606,-98.932
4047,2.447,1.048,-234.864
4048,3.122,1.864,-361.849
4049,6.291,2.027,-412.363
4050,6.594,1.398,-347.217
4051,2.144,0.559,-206.065
4052,-2.563,-0.186,-71.251
4053,0.280,0.047,-16.310
4054,0.746,0.350,-38.492
4055,0.885,1.724,-151.054
4056,3.565,4.404,-305.976
4057,6.687,5.010,-412.061
4058,2.214,2.889,-380.116
4059,4.613,1.002,-226.965
4060,5.266,-0.699,-79.104
4061,-0.489,0.140,-8.784
4062,0.722,0.186,-33.552
4063,1.771,1.048,-129.362
4064,6.198,1.561,-269.628
4065,5.732,2.610,-392.116
4066,4.171,2.610,-391.929
4067,3.146,1.817,-280.369
4068,3.355,0.862,-144.064
4069,2.516,0.373,-38.096
4070,0.326,-0.070,-19.525
4071,1.911,-0.233,-97.278
4072,3.728,-1.048,-244.603
4073,3.798,-1.072,-377.670
4074,5.243,1.538,-408.123
4075,5.382,1.584,-293.417
4076,-1.165,1.375,-141.012
4077,1.561,-0.280,-25.350
4078,-0.909,0.186,-8.784
4079,-0.396,0.513,-74.513
4080,1.678,1.118,-212.985
4081,4.334,1.724,-357.865
4082,6.384,1.981,-417.909
4083,7.130,1.608,-361.546
4084,2.027,0.792,-224.286
4085,-1.748,0.186,-84.346
4086,0.023,0.023,-19.525
4087,0.746,0.350,-39.191
4088,0.280,1.584,-137.400
4089,4.311,4.101,-285.378
4090,5.942,4.171,-392.349
4091,2.214,2.237,-366.416
4092,6.338,0.583,-240.130
4093,4.660,-0.140,-109.953
4094,0.839,0.023,-28.100
4095,0.443,0.117,-28.449
4096,2.540,0.652,-123.886
4097,4.940,1.561,-266.808
4098,5.918,2.330,-372.287
4099,4.031,1.701,-374.827
4100,1.421,0.769,-306.675
4101,0.117,0.070,-183.627
4102,0.955,0.117,-54.825
4103,-0.256,-0.047,-12.419
4104,0.419,0.303,-52.705
4105,5.033,1.002,-172.327
4106,4.823,0.396,-336.918
4107,5.778,1.748,-431.959
4108,3.914,3.984,-365.274
4109,2.540,2.004,-216.900
4110,0.559,0.466,-63.772
4111,0.326,-0.117,-1.724
4112,0.280,0.023,-18.034
4113,0.233,0.746,-121.346
4114,1.375,1.678,-290.365
4115,2.726,2.353,-411.944
4116,5.452,4.567,-427.019
4117,5.406,4.660,-325.431
4118,4.916,3.006,-160.351
4119,2.586,0.862,-34.531
4120,0.303,-0.023,-8.854
4121,1.118,0.326,-60.557
4122,1.165,1.328,-179.643
4123,4.497,3.076,-330.883
4124,2.097,2.679,-390.392
4125,7.899,0.583,-329.905
4126,5.755,0.396,-215.152
4127,2.214,0.303,-91.196
4128,0.419,0.000,-16.217
4129,0.746,0.070,-25.467
4130,2.819,0.746,-133.416
4131,5.778,1.654,-286.637
4132,5.312,1.375,-396.426
4133,1.841,0.280,-421.450
4134,1.491,0.047,-329.672
4135,0.419,0.070,-165.663
4136,1.515,0.256,-31.478
4137,-0.676,-0.093,-11.906
4138,0.256,0.396,-59.205
4139,3.518,1.258,-170.789
4140,6.244,1.515,-319.886
4141,6.920,2.470,-387.316
4142,1.025,3.658,-352.413
4143,1.515,1.841,-244.207
4144,0.746,0.769,-114.310
4145,0.536,0.047,-17.801
4146,0.093,-0.023,-10.951
4147,1.258,0.419,-92.757
4148,2.167,1.165,-253.830
4149,4.427,2.913,-397.731
4150,6.967,5.219,-450.855
4151,4.893,4.916,-367.348
4152,2.959,2.563,-194.019
4153,2.749,0.932,-47.252
4154,0.513,0.023,-4.078
4155,1.538,0.280,-37.653
4156,0.699,0.629,-140.429
4157,0.280,2.400,-272.144
4158,4.637,2.726,-353.391
4159,11.324,0.885,-352.902
4160,6.338,1.282,-285.239
4161,3.355,0.979,-172.094
4162,1.048,0.210,-48.464
4163,0.070,-0.070,-4.311
4164,1.375,0.303,-50.608
4165,3.565,0.909,-180.342
4166,6.081,0.583,-351.737
4167,5.056,-1.421,-471.778
4168,4.171,-1.538,-443.795
4169,2.726,-0.117,-281.977
4170,0.932,0.676,-78.404
4171,0.699,-0.280,1.631
4172,0.256,-0.093,-11.673
4173,-0.303,0.419,-70.133
4174,1.584,0.955,-179.037
4175,4.893,1.235,-301.595
4176,3.076,2.050,-375.177
4177,2.633,2.214,-364.132
4178,4.380,1.584,-267.135
4179,1.305,0.303,-143.248
4180,-2.516,-0.559,-51.959
4181,0.559,0.070,-37.000
4182,0.699,0.629,-111.654
4183,2.167,2.540,-250.615
4184,5.219,5.429,-366.905
4185,6.151,5.755,-391.440
4186,3.379,3.052,-308.725
4187,2.959,-0.350,-148.328
4188,2.167,-0.652,-28.543
4189,-0.210,0.280,-17.731
4190,0.513,0.862,-70.762
4191,-1.165,2.796,-167.550
4192,6.011,2.866,-294.326
4193,11.021,1.981,-381.724
4194,6.081,2.423,-386.314
4195,2.516,1.817,-275.383
4196,2.586,1.048,-106.388
4197,1.375,0.303,-16.729
4198,-0.652,-0.163,-8.807
4199,1.095,0.373,-73.628
4200,5.266,0.839,-233.140
4201,5.149,-0.839,-400.946
4202,4.497,-0.792,-466.606
4203,3.681,2.423,-368.746
4204,1.561,2.074,-152.382
4205,1.724,-0.326,-11.813
4206,0.885,-0.303,-6.198
4207,-0.466,0.513,-54.802
4208,2.027,0.885,-160.723
4209,2.773,1.538,-281.278
4210,3.798,1.911,-365.717
4211,6.338,1.934,-376.761
4212,6.058,1.118,-298.543
4213,0.955,0.047,-167.131
4214,-3.029,-0.559,-59.811
4215,0.816,0.093,-32.876
4216,0.885,0.466,-74.257
4217,1.328,2.120,-199.518
4218,5.592,4.800,-344.630
4219,6.734,4.660,-415.090
4220,2.866,1.398,-341.485
4221,3.798,-0.326,-174.284
4222,3.542,-0.885,-37.956
4223,-1.724,0.559,-12.978
4224,1.165,0.513,-70.902
4225,1.981,1.584,-182.369
4226,6.384,1.981,-306.791
4227,5.149,2.703,-393.537
4228,2.493,2.400,-357.795
4229,1.375,1.864,-210.912
4230,5.289,1.631,-82.622
4231,1.235,0.443,-50.165
4232,1.072,0.350,-88.400
4233,2.307,0.513,-202.640
4234,5.103,0.186,-314.573
4235,3.961,-0.839,-362.944
4236,4.194,2.423,-313.408
4237,2.144,2.703,-182.323
4238,0.839,0.862,-68.688
4239,0.536,0.047,-29.218
4240,0.722,0.303,-76.028
4241,3.169,0.629,-187.006
4242,2.819,1.491,-306.325
4243,5.615,1.771,-375.480
4244,7.409,1.678,-350.735
4245,5.988,0.629,-251.570
4246,-0.979,-0.513,-118.108
4247,-3.658,-0.839,-49.932
4248,1.584,0.210,-50.911
4249,0.746,0.652,-114.822
4250,4.753,2.540,-246.514
4251,4.940,3.565,-362.688
4252,5.732,3.379,-383.122
4253,2.237,-0.186,-280.439
4254,4.078,-1.072,-136.818
4255,0.652,-0.210,-39.587
4256,-0.303,0.210,-20.760
4257,0.862,0.652,-92.012
4258,3.122,1.561,-217.622
4259,6.384,2.050,-343.745
4260,4.520,2.726,-395.890
4261,2.563,2.097,-308.911
4262,2.936,1.445,-163.100
4263,4.147,0.909,-59.392
4264,1.048,0.186,-39.983
4265,0.792,-0.117,-113.098
4266,2.866,-0.489,-241.132
4267,4.940,-0.816,-352.506
4268,3.891,0.443,-381.561
4269,4.916,2.260,-281.930
4270,1.841,1.025,-127.754
4271,-0.186,0.256,-20.970
4272,0.210,-0.070,-13.351
4273,-0.513,0.769,-92.035
4274,3.029,0.932,-225.637
4275,2.913,1.748,-349.220
4276,5.942,2.027,-405.513
4277,6.990,1.445,-353.694
4278,3.285,0.443,-220.604
4279,-3.146,-0.536,-78.707
4280,-0.280,-0.117,-21.832
4281,1.095,0.233,-28.379
4282,0.373,1.072,-121.952
4283,2.773,3.845,-280.579
4284,6.850,5.499,-405.560
4285,4.241,3.099,-408.542
4286,2.749,1.235,-263.686
4287,5.708,-0.816,-98.233
4288,0.070,-0.023,-10.998
4289,-0.303,0.326,-24.139
4290,1.421,0.862,-107.529
4291,4.986,1.538,-233.093
4292,6.477,2.283,-362.432
4293,4.846,2.773,-403.090
4294,2.237,2.004,-309.610
4295,3.332,1.398,-161.376
4296,3.751,0.722,-52.402
4297,0.140,-0.070,-37.163
4298,1.724,-0.140,-104.221
4299,4.031,-0.746,-231.322
4300,4.101,-1.188,-351.620
4301,4.427,0.746,-389.366
4302,6.827,1.375,-291.693
4303,-1.118,1.491,-151.124
4304,0.000,0.280,-53.334
4305,0.350,-0.023,-30.220
4306,0.047,0.489,-87.841
4307,1.654,0.979,-205.040
4308,4.194,1.468,-326.317
4309,6.780,1.817,-385.196
4310,7.945,1.212,-351.853
4311,3.448,0.186,-240.549
4312,-4.171,-0.629,-111.048
4313,-1.351,-0.047,-46.134
4314,0.280,0.326,-47.183
4315,2.307,1.794,-128.896
4316,4.287,3.728,-268.346
4317,6.058,4.264,-377.810
4318,2.516,2.074,-367.231
4319,4.427,0.652,-243.881
4320,3.938,-0.140,-109.580
4321,0.746,-0.047,-21.553
4322,0.536,0.117,-24.861
4323,2.027,0.769,-115.824
4324,5.476,1.538,-262.521
4325,5.452,2.610,-387.759
4326,4.194,2.586,-390.368
4327,3.588,1.794,-291.367
4328,3.239,0.699,-163.053
4329,1.841,0.186,-47.485
4330,-0.163,-0.117,-6.571
4331,1.817,0.023,-55.291
4332,3.472,-0.676,-198.679
4333,3.472,-1.095,-362.921
4334,4.054,1.608,-436.712
4335,5.895,2.773,-342.627
4336,1.654,1.165,-173.002
4337,1.165,-0.140,-30.826
4338,-0.093,-0.047,-2.447
4339,-0.583,0.373,-45.552
4340,0.792,0.955,-168.366
4341,2.423,1.771,-324.010
4342,4.823,1.934,-422.103
4343,5.126,2.447,-396.706
4344,3.681,2.633,-275.942
4345,2.330,1.608,-114.543
4346,0.373,0.117,-11.580
4347,1.258,0.186,-15.355
4348,-0.419,0.676,-96.975
4349,2.516,3.146,-249.170
4350,6.664,4.334,-384.776
4351,2.656,2.400,-398.337
4352,7.107,0.373,-286.007
4353,4.008,0.210,-145.089
4354,1.048,0.000,-33.412
4355,0.303,0.000,-12.209
4356,2.097,0.396,-84.532
4357,3.775,1.328,-224.565
4358,4.730,2.330,-352.576
4359,4.800,2.330,-386.477
4360,3.192,1.375,-347.543
4361,2.214,0.350,-236.472
4362,1.095,-0.070,-96.951
4363,0.280,-0.023,-17.405
4364,0.769,0.140,-33.832
4365,3.518,0.350,-136.585
4366,3.845,0.023,-297.611
4367,5.103,1.584,-406.632
4368,4.217,3.658,-366.742
4369,2.656,1.911,-240.130
4370,0.955,0.466,-90.311
4371,0.186,-0.070,-6.501
4372,0.070,0.047,-18.920
4373,0.466,0.699,-119.855
4374,2.190,1.561,-288.198
4375,3.355,2.027,-414.693
4376,4.846,4.031,-431.539
4377,4.450,4.520,-328.204
4378,3.402,2.796,-159.279
4379,3.239,0.955,-32.457
4380,0.117,-0.047,-8.994
4381,0.885,0.489,-66.382
4382,1.748,1.678,-187.076
4383,4.474,3.146,-329.672
4384,1.817,2.726,-380.116
4385,8.761,0.816,-322.053
4386,6.058,0.466,-209.630
4387,2.050,0.373,-91.453
4388,0.513,0.023,-18.617
4389,0.979,0.117,-33.039
4390,3.262,0.816,-146.464
4391,5.755,1.561,-294.698
4392,4.031,1.002,-400.038
4393,0.559,0.256,-417.559
4394,1.258,0.606,-320.794
4395,1.584,0.559,-157.322
4396,2.167,0.419,-30.243
4397,-0.652,-0.047,-16.776
4398,-0.140,0.419,-63.283
4399,3.215,1.375,-168.063
4400,6.827,1.584,-310.612
4401,6.384,2.493,-375.340
4402,0.979,3.681,-352.063
4403,1.724,1.957,-259.399
4404,1.445,0.932,-139.963
4405,0.629,0.140,-32.573
4406,0.047,-0.047,-6.244
4407,0.443,0.256,-67.454
4408,2.144,1.118,-221.234
4409,5.219,2.796,-380.233
4410,7.806,4.823,-458.894
4411,5.336,4.497,-395.215
4412,2.633,2.493,-230.693
4413,1.258,0.862,-71.391
4414,0.629,0.070,-3.891
4415,0.559,0.070,-21.995
4416,0.280,0.606,-106.598
4417,0.536,2.260,-221.653
4418,3.845,2.982,-324.103
4419,11.930,1.025,-356.700
4420,7.246,1.491,-323.311
4421,3.914,1.398,-226.709
4422,2.283,0.583,-85.534
4423,0.093,-0.047,-5.569
4424,0.536,0.070,-24.302
4425,2.237,0.629,-126.403
4426,5.685,0.792,-294.722
4427,5.336,-1.118,-440.813
4428,4.404,-1.794,-458.148
4429,3.192,-0.140,-332.584
4430,1.678,1.048,-124.608
4431,0.513,-0.093,-2.959
4432,1.142,-0.419,-6.920
4433,0.140,0.163,-57.807
4434,1.258,0.652,-159.256
4435,3.332,1.188,-280.322
4436,2.679,2.004,-361.756
4437,3.309,1.934,-358.214
4438,4.287,1.608,-272.890
4439,2.889,0.629,-157.322
4440,-2.144,-0.536,-65.776
4441,-0.722,-0.256,-37.769
4442,1.165,0.443,-90.590
4443,1.468,1.817,-228.573
4444,4.450,4.893,-360.567
4445,6.664,5.988,-403.696
4446,4.241,3.239,-329.439
4447,3.379,-0.559,-166.129
4448,1.561,-0.559,-32.387
4449,0.000,0.163,-13.631
4450,0.513,0.676,-62.234
4451,-0.722,2.307,-154.805
4452,4.217,2.796,-280.579
4453,10.275,2.074,-372.008
4454,6.128,2.400,-386.034
4455,2.726,1.911,-286.590
4456,2.749,1.235,-119.995
4457,2.074,0.513,-29.311
4458,-0.443,-0.047,-19.922
4459,1.608,0.466,-78.474
4460,4.940,0.652,-226.826
4461,4.264,-0.722,-382.516
4462,4.777,-0.816,-444.820
4463,3.705,2.027,-359.985
4464,1.608,2.190,-159.116
4465,1.375,-0.140,-16.962
4466,1.095,-0.373,-6.477
4467,-0.373,0.443,-54.778
4468,2.144,0.839,-160.887
4469,2.913,1.491,-283.165
4470,3.565,1.911,-363.317
4471,5.918,1.911,-371.006
4472,5.825,1.165,-291.926
4473,1.048,0.070,-161.469
4474,-2.843,-0.536,-58.180
4475,0.583,0.047,-32.550
4476,0.955,0.373,-69.550
4477,1.235,1.864,-193.041
4478,5.545,4.567,-341.462
4479,7.013,5.010,-417.559
4480,3.029,1.748,-353.578
4481,3.472,-0.396,-183.954
4482,3.705,-0.955,-40.216
4483,-2.493,0.746,-9.204
4484,1.375,0.350,-57.621
4485,1.934,1.328,-164.987
4486,5.545,2.050,-293.347
4487,5.848,2.586,-391.370
4488,3.029,2.586,-379.091
4489,1.165,2.097,-243.508
4490,5.289,1.794,-98.210
4491,2.237,0.629,-49.419
4492,1.142,0.303,-66.685
4493,1.305,0.233,-167.667
4494,4.124,0.326,-293.673
4495,4.823,-0.606,-370.773
4496,4.427,1.678,-349.943
4497,2.050,3.239,-222.166
4498,1.584,0.955,-84.882
4499,0.955,-0.163,-12.093
4500,-0.233,0.303,-41.311
4501,2.633,0.583,-155.434
4502,2.749,1.491,-295.397
4503,4.660,1.981,-394.306
4504,7.037,1.911,-393.188
4505,6.105,1.025,-293.930
4506,0.117,0.023,-142.293
4507,-3.076,-0.559,-40.216
4508,1.165,0.140,-19.502
4509,0.792,0.513,-68.712
4510,1.491,2.283,-206.578
4511,4.800,4.986,-360.521
4512,6.477,4.334,-430.980
4513,2.773,1.584,-343.792
4514,5.010,0.000,-176.195
4515,3.285,-0.629,-39.680
4516,-1.421,0.396,-7.666
4517,1.188,0.350,-58.623
4518,2.913,1.258,-173.212
4519,6.338,1.911,-318.464
4520,5.033,2.843,-409.101
4521,3.099,2.400,-362.338
4522,2.866,1.701,-230.950
4523,4.147,0.955,-95.926
4524,1.025,0.140,-30.593
4525,0.885,-0.117,-59.998
4526,3.099,-0.443,-169.857
4527,4.380,-1.118,-306.046
4528,3.938,-0.093,-388.714
4529,6.850,1.887,-345.982
4530,1.421,1.468,-214.313
4531,-1.072,0.839,-91.686
4532,1.282,-0.256,-23.673
4533,-1.048,0.419,-40.915
4534,1.048,0.722,-143.528
4535,2.959,1.351,-286.310
4536,5.965,1.794,-390.089
4537,7.642,1.748,-390.019
4538,5.918,0.885,-296.073
4539,-1.538,-0.023,-151.007
4540,-2.330,-0.210,-46.414
4541,0.979,0.210,-25.537
4542,0.303,0.722,-78.474
4543,2.843,2.889,-210.632
4544,5.778,4.474,-350.875
4545,4.031,2.982,-399.875
4546,3.728,1.188,-307.467
4547,5.359,0.023,-167.970
4548,2.656,-0.210,-54.778
4549,0.186,0.047,-15.844
4550,1.235,0.373,-68.153
4551,4.054,1.095,-198.865
4552,5.732,2.120,-335.706
4553,5.569,2.260,-391.184
4554,2.493,1.212,-348.545
4555,1.654,0.466,-244.743
4556,-0.396,-0.210,-101.448
4557,0.746,0.070,-11.161
4558,-1.118,-0.163,-20.061
4559,3.029,0.746,-102.660
4560,5.988,0.606,-263.873
4561,3.914,0.513,-416.324
4562,6.524,3.379,-426.274
4563,2.656,3.262,-297.867
4564,1.631,0.909,-125.401
4565,0.280,-0.023,-10.648
4566,0.256,-0.093,-2.307
4567,0.210,0.280,-49.210
4568,0.466,1.212,-198.003
4569,2.563,1.887,-365.414
4570,3.612,3.262,-445.286
4571,6.035,4.986,-400.783
4572,4.357,3.914,-250.452
4573,5.289,2.050,-84.276
4574,-0.652,-0.163,-6.967
4575,1.654,0.303,-22.298
4576,0.536,0.606,-105.968
4577,2.843,2.353,-253.015
4578,3.984,3.309,-380.093
4579,4.101,1.724,-374.897
4580,8.318,0.303,-283.445
4581,3.845,0.466,-156.273
4582,1.188,0.140,-46.111
4583,0.233,-0.023,-8.435
4584,1.561,0.303,-62.607
4585,4.124,1.212,-203.782
4586,5.965,1.748,-347.030
4587,3.355,0.839,-424.759
4588,1.911,0.256,-397.708
4589,1.584,0.186,-261.263
4590,0.210,0.000,-92.501
4591,1.398,0.210,-9.017
4592,-1.165,-0.117,-23.836
4593,1.724,0.792,-99.608
4594,4.520,1.375,-236.542
4595,8.039,1.701,-364.459
4596,2.936,3.542,-382.842
4597,1.654,2.726,-315.319
4598,1.118,1.351,-192.551
4599,1.002,0.396,-67.756
4600,0.233,-0.047,-5.103
4601,0.396,0.093,-32.038
4602,1.701,0.699,-155.830
4603,2.843,1.724,-321.563
4604,6.361,4.101,-436.432
4605,6.244,5.452,-431.539
4606,3.938,3.821,-298.613
4607,2.610,1.654,-121.253
4608,1.351,0.350,-15.518
4609,1.048,0.117,-10.275
4610,1.095,0.280,-71.018
4611,0.186,1.282,-195.021
4612,1.468,2.982,-309.238
4613,8.621,1.957,-364.365
4614,9.879,0.955,-334.145
4615,4.567,1.305,-247.097
4616,2.633,0.722,-119.809
4617,0.629,0.047,-15.355
4618,0.186,0.000,-12.605
4619,2.120,0.513,-90.311
4620,4.613,1.002,-245.233
4621,5.895,-0.186,-410.732
4622,4.823,-1.911,-473.246
4623,3.472,-0.909,-382.260
4624,2.353,0.373,-192.877
4625,0.489,0.326,-26.469
4626,0.885,-0.350,-0.606
4627,0.070,0.047,-30.570
4628,0.419,0.513,-113.471
4629,3.518,0.746,-233.932
4630,3.751,1.351,-337.454
4631,1.981,2.283,-374.058
4632,3.169,1.957,-326.153
4633,4.311,1.188,-212.659
4634,-0.746,-0.163,-99.538
4635,-1.841,-0.466,-37.280
4636,0.909,0.233,-52.844
4637,1.305,1.118,-162.727
4638,2.936,3.542,-308.492
4639,6.011,6.151,-396.496
4640,5.708,4.940,-374.687
4641,2.074,1.538,-249.170
4642,4.194,-1.142,-85.464
4643,-0.326,0.093,-10.438
4644,0.559,0.326,-34.065
4645,0.000,1.468,-104.128
4646,0.117,3.285,-219.905
4647,9.670,2.353,-339.271
4648,9.297,2.260,-400.247
4649,4.450,2.283,-355.465
4650,1.887,1.445,-208.279
4651,3.239,0.862,-54.825
4652,-0.233,-0.070,-8.318
4653,-0.233,-0.047,-21.506
4654,2.796,0.699,-126.566
4655,5.569,0.303,-305.090
4656,4.940,-1.212,-443.073
4657,4.287,0.303,-448.595
4658,2.679,3.169,-289.176
4659,1.654,0.862,-79.337
4660,1.981,-0.606,-1.654
4661,-0.023,0.047,-16.287
4662,-0.117,0.746,-88.959
4663,2.889,1.025,-210.073
4664,2.563,1.841,-323.404
4665,4.823,1.981,-383.961
4666,6.361,1.701,-352.459
4667,4.031,0.699,-242.833
4668,-1.212,-0.140,-107.879
4669,-1.445,-0.280,-34.973
4670,1.398,0.233,-32.900
